L_accx_1,L_accy_1,L_accz_1,L_accx_2,L_accy_2,L_accz_2,L_accx_3,L_accy_3,L_accz_3,L_accx_4,L_accy_4,L_accz_4,L_accx_5,L_accy_5,L_accz_5,R_accx_1,R_accy_1,R_accz_1,R_accx_2,R_accy_2,R_accz_2,R_accx_3,R_accy_3,R_accz_3,R_accx_4,R_accy_4,R_accz_4,R_accx_5,R_accy_5,R_accz_5,Label
1359,90,1670,224,666,5372,-417,250,3512,-335,-20,2991,-529,507,2209,-16218,-3164,-8838,-5794,1165,2680,-1515,-1039,1085,13,492,191,420,-16,-113,0
4021,-3358,3774,1305,-1337,5398,-217,186,3116,-221,-12,2640,-155,45,2395,-5458,648,3908,-1360,-322,1784,119,-33,321,541,52,-60,561,-76,-126,0
3859,2115,-1813,1197,1708,7502,700,-552,4184,-237,36,2848,-413,288,2448,-8548,-3649,1573,-1452,1962,2235,-262,-424,671,481,250,122,733,181,-138,0
1185,-554,2269,1054,428,6150,257,-89,3611,-64,-29,2800,-349,212,2539,-13738,-2085,-9871,-3291,1242,4788,-518,135,1096,224,-62,181,820,193,-160,0
4272,-1499,4781,1612,-415,4815,427,104,3124,241,0,2708,-121,476,2324,11697,-805,24973,-512,-173,1367,646,222,-105,557,40,-127,652,-5,-140,0
4663,-2120,4282,77,7,3149,-155,153,2561,87,129,2131,-276,139,2287,-10671,-841,-7378,-877,-98,1718,555,126,-17,552,77,-171,782,-136,-44,0
3605,-2799,4526,-200,-30,3106,-10,246,2568,-10,417,2154,-632,301,2243,-15004,-2545,-7345,-615,1455,2032,363,-45,54,627,28,-197,1007,50,56,0
2029,-1695,2397,1128,788,6984,67,213,3561,-27,101,2753,-272,385,2291,-12758,-901,-9128,-4292,-2164,4113,-709,11,1522,159,-58,231,755,-155,-75,0
4724,-3239,4425,2121,-1079,4797,224,165,3036,32,181,2532,-181,347,2286,-5421,-2659,-1182,-2563,3135,4327,-227,-174,870,545,-67,30,785,6,-132,0
2914,531,-830,1641,1187,7056,352,-131,3818,-129,140,2898,-324,370,2342,-5028,-4780,2143,-783,1510,2340,151,-3,496,578,9,-37,868,-121,-72,0
4994,-3696,5183,1915,-1392,5376,334,-117,3133,184,-235,2656,-188,109,2442,-7064,-4756,-265,-1849,1865,3194,-78,-214,654,563,-61,7,749,-73,-138,0
3432,-35,-436,2006,131,6784,673,105,3669,124,250,2712,-278,554,2311,-9298,-880,-7481,-3174,-24,5326,-1250,-278,1528,378,243,183,617,-26,-123,0
5244,-4305,3990,1603,-1229,4910,132,-206,3046,-24,-144,2581,-304,194,2444,-7046,-3965,-365,-17991,20914,7607,113,245,456,441,95,9,852,258,-133,0
4195,345,4835,1587,-480,4103,300,255,2805,270,113,2479,103,326,2511,-4167,-1974,-3644,-2824,-62,5295,-972,-389,1246,443,77,62,714,257,-109,0
3348,-653,390,1590,1500,6378,407,89,3507,144,226,2818,-292,423,2290,-6518,-5555,-868,-1118,1203,2124,88,-15,414,492,-148,-3,810,40,-146,0
16305,3202,-5608,3365,2251,6252,1214,7,3691,167,348,2810,-74,361,2635,-13464,-69,-8201,-993,48,963,611,158,-63,624,118,-183,767,60,-68,0
7638,1752,-2239,2570,1268,7119,446,153,3561,9,209,2856,-60,241,2388,-5803,-3786,153,134,193,505,566,-61,-109,584,73,-125,850,-234,-18,0
4513,-2162,3946,1163,-416,5002,29,176,3108,209,185,2701,-442,431,2197,-5620,-3283,-351,240,-128,522,730,-19,-173,571,68,-149,641,-127,-135,0
5609,-3414,3092,913,-1120,4659,-162,-273,3040,-250,-129,2586,-250,50,2559,-7088,-3552,-941,-2429,2484,4208,-301,-81,755,378,-177,79,768,152,-125,0
10339,2559,-2574,758,2509,7005,473,-62,3728,9,145,2782,-153,416,2407,-4913,-4612,-286,-1689,-226,2514,269,136,362,602,-14,-66,709,-86,-92,0
3603,-1049,5523,395,-453,4650,39,-95,3282,-111,55,2732,-443,284,2423,-4052,-2083,667,-1584,1215,3221,138,201,561,434,-110,77,795,-112,-105,0
3014,-3454,3305,1470,-790,5967,138,-255,3390,-146,-110,2691,-262,167,2529,-11274,-1782,-6038,-1819,-1603,1576,701,195,-88,630,41,-152,930,-268,-46,0
3196,-2031,2042,1127,1383,6152,121,139,3685,152,-149,2991,-526,428,2316,-12954,1663,-6027,-12376,-17012,1887,674,216,-85,588,-34,-168,869,-97,-29,0
4640,-3546,6931,1575,-980,4279,89,-183,2876,-123,-74,2614,-197,12,2590,-4705,-4810,1493,-1999,-1431,2061,356,119,177,669,318,-110,711,0,-84,0
2912,469,2518,4,1363,4747,124,141,3154,105,468,2800,-378,570,2365,-2252,-2831,1068,42,-67,351,605,15,-94,594,0,-164,521,-240,-181,0
-1272,-2295,2229,497,311,3168,-734,625,2425,-573,640,2404,-918,350,2625,1101,-4373,2005,633,51,-11,169,318,-41,617,146,-212,147,787,4,0
-4807,-6300,1917,-3968,-1845,2130,-3082,-1503,1944,-2570,-1874,2143,-1691,-1241,2474,3344,584,207,-185,203,-123,-119,113,-129,-140,117,-139,-230,195,-90,0
498,-1716,3431,-3,-1261,2641,-303,-1050,2499,-223,-992,2262,12,-935,2314,11165,773,-4161,89,-167,174,-329,-183,-6,-313,-298,-90,-700,-189,96,0
-2329,-2345,3616,-571,-753,3376,159,-733,2622,-25,-860,2507,211,-485,2369,6429,1916,1471,-77,9,298,-466,-285,-38,-464,52,-133,-678,53,-40,0
-3264,-179,4783,-841,65,3929,18,-564,2818,-252,-299,2534,276,-405,2252,16150,-643,-6547,1169,119,1476,-463,-7,-52,-549,-66,-207,-714,227,-9,0
-11127,-2589,-3597,-2459,599,4985,-464,-563,3248,-361,-221,2726,371,-549,2353,7372,-522,1525,2434,393,1841,-310,-33,82,-455,-64,-64,-460,154,-108,0
-8582,-1992,-3279,-2250,254,5752,-685,305,3269,-295,151,2660,263,-396,2396,10036,1689,-1182,20,-89,407,-603,-74,-113,-522,1,-127,-821,212,19,0
-2859,2686,4306,-1396,288,4596,-368,-145,3028,-345,-20,2579,226,-316,2401,15426,-1374,-8780,4228,949,3417,1027,207,1290,-289,-100,172,-745,-54,-63,0
-4016,41,4645,-1635,341,3693,-395,-447,2697,-267,-269,2427,-133,-496,2365,9573,-1169,-5362,2558,-1158,2942,90,-248,493,-418,-4,48,-771,2,-38,0
-4164,364,6117,-1026,-67,4079,-410,21,2819,-243,-167,2563,-41,-329,2452,7967,-750,-6151,2791,-909,3373,349,-30,609,-435,112,-5,-652,-81,-87,0
-4431,933,-3088,-1866,-886,5096,-1048,-37,3214,-697,-90,2615,-76,-561,2455,8113,3666,-321,2473,-162,2343,83,-255,367,-352,-31,-12,-456,119,-107,0
-3617,495,6826,-1332,692,3994,-377,98,2808,-159,-412,2610,15,-290,2472,15314,616,-9757,4955,-2291,5451,1082,119,1182,-264,-27,118,-599,164,-118,0
-3890,60,4639,-1046,-126,4029,-309,-143,2933,-259,-191,2651,157,-415,2418,8176,1261,-5974,3188,-1724,4007,494,-34,745,-333,31,69,-642,26,-126,0
-5704,-301,-2244,-1547,-1095,5581,-588,-87,3156,-525,-93,2687,-153,-411,2469,5666,1575,3208,1827,776,1474,-325,-73,173,-546,-82,-95,-691,143,-54,0
-2753,-258,-1754,-1566,-2245,5825,-1264,101,3596,-574,-237,2741,54,-707,2357,17532,1555,-11780,4938,-2303,4812,892,-61,983,-50,-48,92,-606,95,2,0
-7864,-58,-2889,-3226,1519,4825,-797,-342,3086,-591,-215,2610,-150,-444,2467,6579,3489,871,2596,1019,2165,-111,-106,272,-427,26,-85,-502,44,-82,0
-5474,938,-3714,-2728,721,4636,-829,-371,3070,-653,-314,2647,-36,-561,2338,4983,2156,4600,1029,-54,1637,-142,-21,239,-520,-179,-70,-543,90,-98,0
-4024,2462,4120,-3156,1623,4889,-467,-308,2950,-317,-256,2465,0,-285,2455,9479,-1640,-8468,3724,-1495,5223,952,261,1432,-216,145,146,-713,220,-39,0
-6728,3595,3727,-1811,136,4749,-210,-450,2846,-315,-404,2487,74,-404,2385,16884,-1665,-10005,5707,974,3487,857,-300,1366,-34,-6,279,-507,14,-43,0
-4029,2489,7821,-1442,0,3991,-369,-245,2749,-158,-384,2412,30,-352,2511,11461,622,-7798,3287,-1909,3858,621,76,1023,-266,238,136,-612,62,-118,0
-2974,-331,7251,-841,74,4059,-346,59,2887,-231,-329,2675,254,-361,2331,6508,2917,-3162,2386,-1795,3308,749,136,1237,-154,107,151,-643,174,9,0
-14217,-4586,-6087,-2702,-1343,5931,-641,-473,3257,-460,-368,2649,7,-598,2405,6342,4877,-559,2640,-1114,4037,573,4,821,-249,225,61,-579,198,-84,0
-3976,258,7068,-1011,136,4218,-157,-107,2955,-223,-35,2664,3,-264,2447,5659,3259,-2499,2712,605,3630,165,-39,640,-505,121,-2,-688,-12,-105,0
-5844,1527,1326,-2285,-284,5124,-530,-72,3040,-409,-125,2593,-10,-485,2399,7842,952,-6296,3695,-3017,5787,1253,851,1087,-457,-2,99,-787,-55,-122,0
-3936,1251,3831,-1160,-1012,4126,-696,-108,3116,-490,-25,2646,-140,-308,2463,3138,2051,1174,2327,565,2998,-10,-33,539,-485,200,-52,-680,-61,-98,0
-5836,1026,3372,-1357,-836,4556,-279,-437,2926,-283,-216,2683,208,-360,2665,1408,2044,-1032,1945,479,2394,-114,8,414,-566,213,-46,-756,219,-51,0
-5728,2701,3579,-1391,611,4698,-408,-244,3139,-93,-496,2585,168,-387,2397,13952,-1461,-7811,1125,272,1720,-562,-67,-37,-568,65,-141,-590,308,-104,0
-4508,3022,3759,-86,-117,3121,-74,-374,2669,24,-413,2431,462,-433,2283,3006,1932,691,-164,-40,601,-630,-105,-101,-453,147,-171,-546,-7,-110,0
1908,5445,3413,137,3369,1880,-392,2071,2117,-336,1896,1965,-27,472,2698,1629,1669,914,-30,25,6,-69,-498,-147,7,-313,-131,85,-319,-113,0
-2451,-3366,3448,-15608,31271,-3558,2105,461,2200,1721,549,2169,1241,170,2279,-10961,1638,-6100,-959,363,1731,178,-69,-26,300,-71,-98,266,-289,-108,0
9657,3428,427,1458,-263,3656,561,110,2527,337,364,2386,-6,153,2359,-10636,160,-2463,-1489,-926,1066,238,-185,-55,430,-5,-61,441,-238,-90,0
9925,4664,1108,855,2333,5870,1383,-347,3817,15,250,2687,-58,286,2356,-8955,-1714,-2796,-3206,804,3119,-5,314,500,67,-353,17,480,-333,-78,0
9896,5983,1494,1164,-78,7876,1006,193,4008,-126,278,2706,-383,450,2342,-6818,660,-4295,-313,57,873,411,-22,-72,417,-136,-151,540,-203,-104,0
2472,-263,3818,1038,-216,4398,35,-26,2894,12,71,2588,-146,66,2486,-11302,465,-5826,-1034,56,2098,384,-53,30,494,-8,-124,712,32,-91,0
94,-1244,4558,633,320,4874,166,33,3144,318,-60,2772,-221,156,2436,-2838,-1561,1174,156,253,880,379,-39,-30,491,12,-165,658,-119,-41,0
1389,813,6707,-223,183,2869,70,153,2529,-87,355,2425,-578,123,2254,-5343,-1020,784,265,1,198,504,5,-94,441,-10,-107,476,-192,-91,0
3548,-482,4159,1032,155,4962,31,-7,2966,76,-118,2655,-542,294,2353,-14213,3117,-7221,-1000,-191,1470,518,3,-44,500,-59,-133,421,-253,-114,0
743,2087,4739,1355,-700,4202,-191,93,2773,-107,-45,2566,-341,245,2394,-7131,-1144,974,149,204,210,355,-63,-136,323,-30,-156,473,-216,24,0
3780,-1004,3317,555,-26,4690,-189,97,2995,-61,-29,2551,-275,93,2409,-9684,527,-6849,-712,-187,840,489,15,-113,446,-69,-113,791,-85,55,0
6814,2334,-2059,1571,1380,5348,825,-147,3264,323,-91,2643,-158,-76,2522,-11473,-253,-1862,-4153,-4904,1079,-33,400,101,542,-190,-176,542,101,-77,0
3597,1548,4122,2303,-309,4427,366,491,2896,440,308,2460,37,442,2372,-15213,449,-7135,-3646,3086,5243,-651,271,958,621,238,79,673,-173,-59,0
4065,-1599,5239,1666,-477,4367,278,282,2771,329,434,2564,157,302,2345,-17243,-1341,-10451,-3378,-552,1917,-148,281,299,385,39,42,466,-341,-146,0
2155,-1830,4012,482,-305,2908,52,98,2368,247,-100,2168,-319,-303,2422,-5225,319,-3243,338,203,155,374,-220,-185,330,40,-160,348,-102,-82,0
1270,-1106,4078,-690,1222,4010,-582,-105,3023,-233,-242,2883,-467,119,2428,-4226,-688,1987,-903,570,1938,65,-243,344,437,-27,2,718,10,24,0
4169,1223,471,566,1411,6557,616,-463,3797,133,-10,2798,-322,149,2339,-15887,1947,-8014,-1079,-350,1268,561,25,-65,592,-1,-138,750,-127,24,0
3503,255,4290,1981,-448,4954,-157,582,3029,163,-31,2459,-264,269,2351,-9839,-616,-6180,-2654,723,3243,-332,-105,659,538,-36,37,645,-66,-120,0
2429,-988,5137,702,908,5380,62,262,3160,113,40,2654,-335,383,2318,-5471,-588,-3103,-2219,-256,2619,109,302,486,280,-284,47,741,0,-38,0
5091,1608,-456,2101,448,5213,525,-25,3161,582,-213,2756,-43,256,2418,-4539,-508,361,-1441,637,2085,279,133,290,389,-214,20,980,222,-110,0
4456,998,5666,842,512,3401,178,367,2730,351,265,2648,-360,326,2464,-8172,-29,-5034,-414,-12,552,561,-50,-89,580,-12,-148,879,-30,18,0
1578,1585,6470,479,128,3473,438,-66,2727,197,555,2611,-230,374,2417,-14493,1722,-10764,-700,-154,826,466,11,-68,394,-37,-135,656,-166,-33,0
1274,1581,7860,834,-28,3836,11,129,2712,109,292,2625,1,294,2465,-16083,2738,-14640,-5945,-1996,1609,-252,191,117,329,11,-46,504,-243,-35,0
6505,-2039,4164,782,651,4792,339,173,3065,258,-8,2616,-193,388,2424,-7677,-2351,995,-2524,-852,2162,198,198,214,430,83,-96,553,-148,-45,0
5513,-3565,3931,3029,-1216,5571,371,144,3180,130,47,2646,76,203,2621,-7150,570,-7686,-2584,3922,5356,-893,-56,1190,436,-2,149,632,-123,-102,0
677,-990,1955,1526,790,5470,716,69,3530,196,203,2737,-13,391,2516,-14477,1433,-11011,-3831,2245,4187,-1190,-42,1552,127,-84,289,577,-115,-77,0
4938,690,808,1747,853,5745,661,278,3409,381,185,2663,-69,418,2372,-14386,2555,-7257,-4617,596,4254,-996,-191,1496,551,118,140,584,-163,-101,0
8513,391,624,3865,-571,5403,304,398,3075,281,200,2667,120,203,2508,-14051,740,-10020,-4297,1834,3707,-17057,-10779,2721,450,-314,-59,680,-137,-60,0
5120,257,3019,2869,-419,4512,447,357,2820,267,399,2351,-30,480,2349,-3132,-74,927,246,10,366,600,-117,-86,499,-135,-134,506,-209,-103,0
-1590,-7333,2863,859,-3184,2633,114,-2941,1932,390,-2222,2154,-627,-1307,2075,-2276,-971,1129,120,144,57,86,14,31,191,257,-101,-684,-187,177,0
-7083,-1905,3299,-3897,-943,2014,-3339,-626,1804,-2779,-858,1979,-1925,-492,2226,275,2654,1521,1743,169,2430,87,-270,446,-157,131,16,-313,81,-37,0
-4840,683,4351,-1408,-588,3007,-1048,-426,2428,-1070,-491,2400,-526,-442,2342,13155,896,-8117,3114,193,2060,211,-96,367,-340,-39,-5,-590,108,6,0
-4301,-3116,4972,-1603,-212,3763,-491,-352,2760,-83,-613,2505,-130,-380,2424,7482,903,-2599,2115,-1136,2579,461,95,724,-147,332,62,-606,242,-14,0
-4129,-74,6011,-1441,-154,3926,-325,-188,2696,-367,-433,2656,-141,-225,2427,6299,3339,510,1672,621,2194,-267,90,336,-709,-90,-30,-553,123,-118,0
-11540,-7294,-2497,-1831,-1545,6966,-1083,-165,3663,-434,-305,2641,186,-299,2388,6962,1457,-4162,2834,-1640,3320,585,160,938,-289,-56,120,-515,164,-70,0
-1594,-1329,7038,-800,34,3604,-256,-47,2694,127,-676,2624,88,-220,2403,8488,704,-5345,3066,-2481,3377,256,-96,555,-258,164,21,-384,153,-95,0
-2382,-2600,4856,-919,-50,3908,154,-249,2793,572,-434,2465,598,-250,2445,16606,-74,-8241,3036,-688,2240,473,687,574,-366,103,73,-388,158,-80,0
-3827,30,5429,-1222,-14,5605,257,-165,3131,225,-114,2565,459,-75,2347,14543,-1871,-8041,2454,-1447,3028,386,-60,701,-286,107,-17,-610,-6,-10,0
-5288,716,2224,-1721,-798,6742,-250,-361,3200,-203,-193,2373,272,-241,2262,10651,-2681,-864,3344,-218,2961,846,34,499,-308,83,-30,-510,272,-50,0
-5560,-6758,668,-3588,1114,5573,-455,-159,3097,-176,-13,2385,97,-280,2583,7064,-3749,4503,1402,178,712,-99,8,30,-271,32,-58,-331,29,-37,0
-5994,-503,189,-5501,1813,4788,-338,-736,3012,-309,-338,2501,5567,-27963,-31234,7634,384,797,2224,-1005,1902,320,-23,434,-85,43,5,-471,10,-10,0
-4999,-943,4306,-2009,-91,3948,-311,-498,2655,-212,-478,2410,209,-425,2351,16235,-209,-3277,3478,574,2141,423,-110,451,-417,46,0,-531,44,-86,0
-7089,145,3449,-2051,-429,4075,-534,-563,2694,-68,-805,2429,-94,-459,2328,8861,-1102,-6562,3331,488,2101,164,-347,400,-266,-43,-9,-483,-54,-44,0
-5195,1056,7087,-3296,494,4497,-514,-602,2780,-513,-532,2455,-28,-134,1756,15833,-829,-12338,3778,-2352,3643,417,47,767,-314,294,30,-470,202,-66,0
-892,-702,181,-632,-1656,7971,-515,-85,3403,-209,-14,2570,209,-216,2357,14011,-4002,-9372,4990,11,4560,1243,149,1638,-211,173,238,-523,165,-79,0
-764,-2362,8602,-1792,207,4305,-145,-277,2818,100,-523,2497,342,-257,2478,13642,-1899,-10585,2984,-2653,3768,441,254,637,-259,327,44,-522,121,-57,0
-5218,-192,2009,-1736,-767,5191,-181,-497,2972,-17,-512,2400,254,-490,2326,16370,-456,-9173,3365,-2047,4863,1036,23,1399,-217,75,181,-585,348,-2,0
-11022,-8028,-1380,-2016,-989,7117,-1007,-93,3454,-140,-267,2433,170,-378,2426,15448,-2160,-9980,15721,28442,22812,1048,88,1304,-352,-77,180,-614,264,3,0
-4961,-675,3906,-1537,-456,4893,-611,-465,3139,-434,-504,2615,172,-432,2346,3863,2154,-795,3219,-953,4445,44,-71,619,-572,66,-28,-671,134,-26,0
-10738,-9054,-1503,-70,-2374,7787,-1477,-255,3718,-244,-572,2521,1,-456,2307,5170,-1478,4467,5170,-1478,4467,5170,-1478,4467,5170,-1478,4467,2133,637,1767,0
904,-986,3019,236,97,2488,458,125,2357,-53,156,2176,-31,-31,2276,-10873,8340,-7441,-5244,2264,3686,-1489,-74,686,-13,-139,0,291,-79,-134,0
8389,328,4025,982,758,4265,239,293,3014,-348,253,2550,-307,203,2656,-1948,3302,-4936,-2262,1663,4465,-506,222,982,55,-329,91,440,-188,-117,0
3447,599,5715,574,534,3323,-14,78,2510,-409,223,2521,-518,62,2335,-12480,5471,-8803,-3023,914,4363,-698,23,1025,304,-248,100,585,-200,-171,0
7566,6391,392,2009,1984,5521,43,715,3083,-267,446,2423,-356,147,2191,-8212,4009,-8647,-3625,2163,4110,-1091,-26,951,115,-63,100,345,-321,-126,0
610,2767,445,1077,957,6379,891,616,3992,206,192,2696,-906,253,2370,-9377,-32,-1261,-2252,1925,2943,-427,-286,535,175,-345,1,391,-272,-130,0
-282,-639,858,601,1032,7373,1355,554,3968,116,-28,2634,-434,-89,2410,-15469,6087,-9800,-1202,12,1043,431,-129,-123,478,-107,-170,622,-336,68,0
4845,2217,2336,1555,1202,6728,606,640,3589,58,155,2516,-307,63,2269,-14574,6200,-8448,-4249,812,5407,-942,-14,975,264,0,88,661,-190,-40,0
5573,2196,3427,2127,1338,4810,339,566,2795,234,529,2438,-289,373,2318,-7898,-3039,-1348,-1993,2410,3836,-482,59,711,70,-293,18,539,-216,-54,0
7069,2654,2556,1896,1070,5215,559,195,3034,38,-21,2507,-291,199,2536,-6584,-3289,156,-2697,1442,3888,-205,178,655,259,-224,-22,668,224,-61,0
3263,3613,-3199,2337,2364,6764,1199,933,3385,385,498,2289,-53,372,2400,-9884,-1798,-1399,-2637,177,2348,85,218,324,433,-14,-84,267,-140,-134,0
187,1149,2996,-3,783,2312,-577,851,2234,-383,692,2185,-318,566,2186,-14415,4709,-13204,-4912,1903,4458,-1356,334,1197,-75,29,142,411,-284,-34,0
869,848,3226,222,542,2416,-327,524,2187,-454,407,2161,-314,300,2189,-7004,-1433,473,-3371,-284,2613,-78,178,347,182,-161,-57,561,-337,-75,0
561,1284,3633,-102,650,2543,-120,555,2298,-484,605,2134,-387,394,2177,-4112,388,-4695,-2704,2337,6503,-1316,140,1207,93,55,123,516,-155,-69,0
79,2204,-483,1781,1229,7590,1064,787,3735,213,270,2509,-343,144,2328,-7226,3673,-5656,-3921,145,3814,-1140,-78,1206,56,-291,119,586,-282,-36,0
537,714,3128,263,328,2359,-431,387,2246,-469,357,2309,-327,193,2257,-9318,-2539,-1267,-3221,-300,2875,-643,-354,426,137,-240,-11,718,-361,87,0
808,2262,6226,312,847,3057,-299,486,2426,-374,490,2269,-541,293,2191,-12382,6268,-6535,-871,669,2146,445,-262,-52,563,-146,-170,558,-333,-79,0
4681,-138,3902,2468,875,6058,849,380,3152,303,112,2484,-122,100,2270,-6863,-1902,874,-2090,-833,2504,160,-175,354,586,-237,-88,624,-223,-99,0
234,894,3043,88,439,2175,-297,556,2269,-350,462,2262,-261,260,2217,-12546,8173,-11034,-848,189,954,592,-35,-106,405,-162,-177,681,-309,66,0
1843,2206,-1816,713,2031,7354,710,613,3751,-62,311,2681,-317,135,2347,-5127,-3265,88,-2483,1125,3986,71,-216,432,519,-243,-57,535,-118,-110,0
4636,1922,4386,1440,654,4223,527,175,2876,-140,113,2485,36,70,2477,-6705,-4388,223,-3067,-724,3038,203,100,470,667,-187,-72,805,0,-142,0
5595,2318,2953,2451,1180,4762,343,650,3046,-8,396,2378,-134,405,2399,-7947,1927,2309,-2376,109,2329,-125,-257,348,494,-364,-63,579,-332,-168,0
1824,1811,6455,567,664,3146,119,262,2601,-447,281,2384,-411,92,2410,-16065,6236,-9175,-5915,2021,3833,-1136,178,960,502,8,44,579,-297,-15,0
4143,769,2037,2825,757,3974,391,413,2594,-34,391,2322,-56,463,2302,-7486,1813,1407,-2797,282,1771,-26,109,216,268,-13,-56,279,-103,-104,0
2558,2461,5970,519,1000,3303,-44,649,2440,-275,707,2415,-451,447,2248,-9500,1633,-6874,-2755,2176,4109,-939,231,1100,168,-80,96,413,-588,-69,0
4286,3007,5435,2491,989,4314,-24,469,2768,-28,327,2335,-528,237,2250,-13521,4055,-7284,-2245,844,3323,-734,40,716,162,-283,32,495,-348,-95,0
2868,-1214,2378,1535,-768,2104,1197,-392,2161,730,-227,2125,262,-1824,1718,183,1668,226,48,216,60,143,194,-161,90,114,-144,38,71,-77,0
-6358,-7693,3305,-1994,-3075,2292,-1729,-2554,1988,-1230,-2281,1976,-950,-1297,2238,1857,1059,-2153,95,-242,333,-259,14,-90,-176,107,-122,-338,317,-39,0
-3587,-2999,5056,-2490,-1317,3512,-626,-1055,2535,-527,-815,2217,-232,-429,2214,12418,-4551,-9216,2275,-3792,3781,868,230,623,-409,60,8,-392,173,-140,0
932,-3896,6089,-1519,-772,3281,-102,-606,2601,-165,-478,2484,140,-268,2364,4134,316,1832,2661,275,2681,-60,-72,414,-334,221,-13,-700,247,67,0
-13565,-11127,-2315,-3929,-1830,3730,-590,-971,2520,-313,-645,2191,-62,-494,2248,14913,-7627,-7990,874,-101,919,-506,175,-103,-341,280,-167,-537,454,16,0
-4852,-1838,5625,-915,-687,3912,27,-433,2694,148,-385,2447,236,-217,2285,14873,-5990,-9764,3989,-3018,5272,16372,28188,6274,-355,273,-13,-433,280,-133,0
-8610,-1401,3717,-1882,-944,4458,-195,-494,2867,262,-392,2497,394,-133,2316,15748,-7335,-9791,5202,-1676,2122,841,-15,752,-207,159,58,-360,199,-95,0
-6205,-1467,4357,-1936,-1530,5199,-119,-818,3072,89,-569,2415,357,-381,2258,6438,-4537,2320,1724,-151,1006,-201,94,29,-276,214,-87,-507,466,62,0
-1351,-2442,7671,-730,-825,3341,-359,-355,2414,148,-572,2354,364,-388,2154,5180,332,2008,2871,-59,2015,-126,-191,189,-291,53,-72,-271,223,-113,0
-5089,-9,2352,-2530,-1215,6371,-431,-534,3143,-159,-328,2476,430,-250,2181,16254,-6358,-9379,7055,-2664,585,1596,-406,1129,-245,20,48,-227,373,-139,0
-2761,-1567,-1322,-1532,-1204,6916,-473,-243,3163,-217,-166,2484,356,-85,2299,15891,-7578,-13634,3540,-3874,4453,1052,-306,759,-158,119,-26,-262,431,-81,0
-442,-1303,6963,-583,-369,3600,-74,-214,2667,593,-338,2420,573,-117,2258,7006,-1944,3212,1835,-142,1122,86,61,101,-352,13,-93,-374,206,-32,0
-850,-3643,6809,-1205,-1072,3689,24,-500,2572,302,-396,2376,300,-274,2294,14094,-3653,-10714,3373,-1816,3751,685,-165,703,-181,159,19,-446,424,-36,0
-1654,-3389,6306,-1227,-882,3819,-454,-459,2660,155,-524,2377,204,-158,2307,8051,-765,-5739,2873,-2506,5155,561,-52,685,-293,168,-6,-438,211,-65,0
-7924,-2698,216,-2528,-1188,4625,-446,-658,2838,-198,-521,2454,231,-384,2313,5501,2299,-2748,2033,-3747,4620,933,-114,896,-125,21,103,-398,155,-77,0
-4445,-2213,5830,-1810,-1283,3732,-264,-752,2466,164,-710,2252,74,-480,2238,4878,878,-2844,2966,-2195,4691,293,-56,677,-438,308,-60,-372,495,-87,0
-1816,-1214,3498,-332,-734,2537,228,-669,2252,252,-540,2199,152,-480,2275,14715,-4742,-12229,3255,-3350,4522,500,-259,534,-219,99,-49,-361,96,-59,0
-2727,-1061,4270,-212,-700,2750,-19,-489,2212,423,-598,2289,264,-482,2255,8527,1321,-1916,3355,-1521,3453,502,-217,521,-112,50,0,-381,443,26,0
-692,-942,3352,-141,-551,2476,405,-674,2435,193,-518,2309,323,-557,2375,11995,-700,-9251,3076,-2206,2857,561,-244,475,-97,65,-8,-371,14,-59,0
-704,-2458,6042,-827,-717,3286,-382,-493,2501,172,-579,2371,146,-378,2262,8751,787,-4009,2842,-2436,3428,672,-221,773,-50,128,51,-377,138,-89,0
-1460,-2604,6579,-1856,-946,3737,-182,-543,2568,157,-596,2371,277,-365,2304,16250,-5581,-10719,2581,-3303,3926,843,-304,1198,15,39,222,-241,209,-103,0
-3399,-2597,6918,-1081,-1069,3947,-102,-553,2675,286,-521,2477,309,-396,2249,7670,1068,-5204,2066,-3376,5007,1189,-6,1203,-137,172,102,-329,485,-71,0
-8583,-2015,3455,-3093,-1316,4694,-498,-687,2823,-120,-469,2404,275,-380,2302,13763,-5203,-12258,3416,-3090,4359,845,-354,704,-302,-18,-19,-451,34,-48,0
-961,-3845,7205,-848,-968,3161,-206,-550,2389,224,-600,2287,359,-399,2275,14477,-5912,-10545,2800,-2821,4454,806,-54,875,-317,68,72,-478,537,-48,0
30992,-31507,-5699,-381,-557,2697,-53,-418,2430,110,-405,2288,30,-433,2400,7081,1975,1339,2635,417,2101,-71,-24,390,-379,339,-121,-445,492,-75,0
-146,-3251,5614,-1183,-1006,3172,-326,-640,2518,265,-593,2237,296,-375,2344,10312,2343,-1886,413,-2068,2027,-181,-12,348,-306,195,21,-333,348,-83,0
-2364,-3174,5748,-1078,-769,3665,-176,-425,2656,219,-478,2463,239,-313,2313,6814,1979,1025,150,30,467,-525,159,-92,-353,213,-137,-598,367,27,0
-1753,2415,3227,1655,-1404,6123,-548,-377,3565,525,-102,2640,158,-9,2397,4010,4671,2724,-934,323,-137,-423,123,-122,-519,-46,-134,-807,-474,186,0
500,3638,1374,352,3302,1497,237,2993,1648,185,2681,1703,-74,2003,2073,-4499,1834,-2429,-125,-242,351,150,-76,-90,268,-13,-141,110,-249,-94,0
850,1886,7712,1303,1202,3461,-94,895,2346,23,839,2282,-206,652,2212,-3366,1280,-1572,-202,58,597,529,42,-48,258,-211,-138,385,-357,-30,0
3689,771,4140,3073,1225,5544,24,576,2902,-7,366,2372,-267,107,2309,-11870,6128,-9753,-1354,-291,1168,282,-378,-116,404,-225,-162,386,-537,-16,0
-19,-2888,856,-742,1086,5388,279,266,3230,-25,165,2524,-461,106,2305,-11444,5360,-10065,-1828,3413,4115,-652,-116,935,152,-345,87,361,-473,-120,0
4189,2102,5152,814,674,4113,245,203,2870,-168,110,2349,-410,80,2328,-5955,655,-4091,-1903,1539,4219,-835,-254,872,298,-232,78,594,-479,-27,0
1269,3667,6738,960,889,3386,147,421,2588,-74,451,2417,-52,458,2346,-6460,1394,-4560,-843,3790,3943,-550,76,1340,156,-335,237,407,-422,-129,0
3052,2369,4514,1636,1000,3972,369,419,2684,-18,332,2323,-239,214,2262,-9928,1009,-4993,-2572,2794,4121,-585,-13,774,236,-354,20,445,-470,-107,0
6701,6938,-2411,665,2491,6148,673,696,3408,5,420,2606,-390,298,2197,-4885,-1193,-106,-2527,457,3335,147,103,451,237,-338,-27,483,-423,-24,0
1943,1288,5630,532,616,3233,44,398,2500,-300,476,2373,-309,291,2206,-5085,987,-1466,-3153,356,3957,-222,134,695,463,-291,-26,680,-328,-41,0
296,810,3186,79,443,2443,-504,501,2160,-301,390,2178,-127,360,2267,-5416,1941,1921,-2360,-31,2780,165,-58,381,621,-252,-87,438,-472,-90,0
653,559,3121,147,222,2606,-71,350,2301,-293,301,2351,-113,71,2266,-11309,8960,-8903,-2174,3026,5774,-1084,-202,1099,341,-262,34,503,-328,-105,0
844,1502,5851,493,618,3382,52,377,2488,-417,508,2311,-407,424,2129,-11579,5755,-11098,-2851,3963,5310,-858,254,1318,323,-132,107,417,-548,-39,0
1859,3185,6388,849,801,3973,78,448,2723,13,333,2417,-318,244,2321,-9370,3604,-8777,-1027,223,1580,453,-182,-77,515,-203,-174,408,-656,43,0
3513,334,4757,161,466,2973,53,245,2386,-494,373,2295,-135,137,2273,-13334,6083,-12818,-4709,1262,2709,-582,246,474,77,-140,-20,392,-95,-85,0
2320,947,4691,255,468,2742,-98,272,2035,-89,385,2127,-263,353,2268,-13834,8477,-8056,-6999,1277,1825,-982,315,1442,131,-82,289,603,-215,-62,0
2985,3999,4780,1960,1132,4175,216,493,2743,-46,383,2442,-127,325,2470,-7382,-137,1600,-571,595,1864,127,-84,376,452,-221,-39,450,-390,-96,0
2206,1173,4325,518,593,2843,403,421,2427,-88,539,2358,54,492,2401,-15500,8336,-9238,-763,562,1286,466,-245,-62,473,-264,-151,817,-395,116,0
249,4153,5809,793,1073,3808,3,680,2751,-115,492,2343,-341,432,2326,-14714,8822,-8699,-3391,1599,2890,-1107,255,1659,189,-153,219,550,-252,-40,0
4830,1481,3763,2505,1040,4703,553,574,2913,31,464,2435,-190,367,2422,-14505,9826,-10849,-5854,2414,3049,-974,722,1754,-45,-141,320,459,-426,-16,0
1391,2835,6445,1054,690,3250,180,457,2503,25,514,2350,-104,459,2394,-7767,254,143,-2215,1719,3463,-299,51,522,537,-407,-97,396,-361,-52,0
4823,1848,4592,2444,656,3951,456,422,2668,146,330,2346,-206,320,2353,-6676,-1328,201,-2570,-146,1975,192,-132,242,383,-267,-39,527,-292,-87,0
-52,3324,7345,1489,521,3232,172,283,2538,0,244,2359,-349,96,2349,-7473,-832,-465,-1141,1115,2461,228,-77,270,302,-305,-35,286,-408,-109,0
4382,16360,-2811,-71,436,2360,-354,561,2304,-378,455,2274,-291,388,2345,-5131,-579,-3473,-1344,3079,5057,-736,60,910,402,-164,26,411,-328,-100,0
3720,2465,5599,2007,589,3723,309,306,2676,85,232,2435,95,126,2420,-3227,2960,-593,219,-211,-91,419,-180,-162,304,-227,-146,170,-240,-68,0
962,354,3813,119,174,3120,-380,141,2440,-141,178,2366,-422,267,2182,-2577,-823,-1382,35,62,653,462,-263,-84,331,-264,-157,430,-343,-88,0
431,1240,3216,1560,-206,3765,-9,-104,2723,-78,-142,2585,-474,-21,2458,1080,-3781,1918,-1371,-657,2367,-1015,-380,1037,86,-390,142,449,-371,-80,0
4221,-3096,4770,1377,-1584,2230,1068,-1133,2238,1045,-1125,2144,926,-1092,3049,327,1027,268,223,371,11,178,191,-64,227,170,-104,135,217,-83,0
-7232,-5836,-1469,-2526,-2664,2090,-1950,-2306,1918,-1703,-1965,1917,-1117,-1354,2156,4606,-1642,-2894,826,7,657,-86,235,-129,-240,84,-113,-74,458,-109,0
-1532,-3730,5916,-1431,-703,3416,-796,-531,2624,-529,-428,2427,-388,-320,2401,2227,-287,-1701,1132,-956,2967,862,-71,1546,-7,218,247,-362,306,-75,0
-467,-2422,7208,-700,-599,3898,-91,-291,2733,175,-403,2394,72,-128,2344,9946,-7887,-6565,663,-58,1155,-537,178,-51,-393,320,-139,-722,400,108,0
-4621,-5138,3605,-2030,-1146,4171,-74,-451,2374,-75,-476,2319,169,-166,2269,6505,-1009,306,-78,59,290,-472,151,-115,-746,-228,-21,-509,475,82,0
-278,-1931,6563,-509,-395,3715,-153,-270,2710,179,-241,2477,225,-84,2358,-16437,9394,-6343,1466,-49,2202,-360,344,-45,-556,240,-150,-532,548,-2,0
-5795,-1697,4543,-1902,-802,5022,-130,-445,2865,-97,-308,2437,265,-122,2305,15302,-7415,-8293,4454,-3278,2748,1037,-336,1162,-161,189,115,-248,390,-112,0
-5048,-2392,4650,-1126,-655,4166,13,-261,2820,104,-149,2472,359,-7,2378,9838,-1330,-6305,1760,-2569,3421,526,52,640,-342,192,25,-330,426,-64,0
-4739,-2199,4939,-1179,-547,3803,-253,-257,2467,76,-231,2390,5,-56,2348,5989,1347,-1284,1080,-1249,2761,-32,272,414,-488,391,-40,-339,406,-88,0
-348,-2201,6910,-700,-596,3353,-208,-381,2575,181,-494,2364,120,-229,2229,7639,-2001,-2461,1761,-2583,3522,240,-82,548,-239,296,-15,-457,419,-34,0
-6023,-3991,4493,-2163,-1554,5162,0,-619,2718,68,-433,2329,211,-138,2313,13228,-7466,-7994,3067,-2638,4308,1772,233,1335,-378,140,124,-426,295,-115,0
-5705,-1663,3372,-1314,-620,4716,-376,-409,2922,-330,-233,2409,171,-178,2370,13027,-8381,-8098,2920,-3783,5467,409,-157,647,-418,233,-5,-450,265,-121,0
-2527,-3395,6028,-1110,-984,3586,-217,-565,2636,190,-539,2364,65,-320,2353,5043,-49,-4938,1022,-2927,4623,667,-85,1126,-378,169,147,-480,450,-19,0
-1825,-4196,6133,-1030,-930,3389,-213,-630,2623,167,-518,2316,101,-399,2386,5036,-919,-634,3929,-581,3805,124,-82,589,-433,395,-85,-411,338,-64,0
-4110,-1729,6373,-1479,-344,4790,-360,-109,2959,96,8,2364,344,11,2417,5862,-3754,-7835,2460,-2326,4023,627,-230,771,-165,333,19,-456,433,-28,0
-1609,-2802,6866,-631,-785,3318,185,-447,2505,444,-545,2346,204,-355,2313,6695,-1911,1028,1628,-808,2420,67,142,388,-396,432,-92,-367,343,-100,0
-2333,-1130,6494,-879,-278,3489,-258,-69,2437,59,-202,2425,114,-86,2395,9131,-1190,-5115,2830,-1215,2893,40,87,324,-163,345,-58,-618,602,42,0
-414,-1082,2741,-451,-729,2357,-15,-649,2250,136,-570,2268,131,-454,2344,7742,2051,-63,3014,-114,2599,-120,69,374,-186,467,-57,-310,479,-107,0
-2743,-2856,-341,-401,-2063,5674,-355,-399,3191,-264,-281,2636,355,-247,2362,13340,-9824,-9417,1330,-334,1526,-299,305,-70,-454,310,-158,-417,621,28,0
-4914,-310,3239,-1148,-1264,4990,-324,-587,2915,172,-401,2417,224,-250,2375,4957,-315,-4465,25611,-13088,12727,53,27,387,-223,358,-19,-448,368,-61,0
-5627,-1524,4342,-2559,-580,4276,-360,-591,2865,-50,-420,2474,67,-358,2456,7036,-1500,-3966,2761,-924,2758,129,-63,548,-350,303,16,-418,399,-97,0
-2289,-1321,5291,-820,-676,3045,-450,-424,2513,149,-541,2433,-62,-459,2463,7811,88,-206,2721,-364,2730,11,287,368,-610,446,-82,-392,393,-87,0
-1981,-3782,6561,-978,-1155,3200,-18,-771,2465,385,-826,2236,352,-439,2287,4677,501,-3601,1158,-3502,5170,950,-104,997,-138,260,120,-360,383,-87,0
-5206,-1482,902,-835,-1966,6258,-1060,-609,3553,-319,-482,2667,94,-171,2165,5649,1821,298,2518,-980,3533,306,-28,677,-128,425,7,-228,649,-97,0
-2952,-565,1033,-503,-959,3509,532,-284,2376,452,-218,2265,886,28,2397,8290,3148,-616,-93,-255,39,-511,239,-152,-345,30,-135,-1054,-463,282,0
1373,3685,1382,1040,3532,1535,1063,3080,1691,817,2819,1785,-423,2099,1844,-3391,3601,1721,-66,-40,30,105,-206,-69,26,-232,-119,131,-301,-11,0
448,-1911,4540,517,1015,3030,-103,1059,2358,-348,972,2166,-451,642,2163,-7672,5006,-7499,-875,494,1499,54,-340,-41,238,-309,-148,195,-414,-67,0
2866,-648,3854,1870,-96,4609,34,238,2920,-74,186,2493,-412,144,2352,-5108,-1570,678,-2475,442,2655,-132,-87,457,229,-288,-9,353,-458,-47,0
5865,5695,-1000,1297,1438,7119,1212,530,3821,92,381,2625,-298,331,2300,-7825,5839,-6626,-249,290,622,327,-294,-120,338,-289,-106,454,-444,-20,0
1187,796,5987,472,82,3128,223,5,2474,-290,101,2344,-241,29,2412,-10593,7552,-7328,-1262,266,1920,456,-328,-78,388,-356,-131,381,-491,-61,0
5057,903,5003,1773,646,5370,-101,442,2992,-77,282,2348,-577,467,2099,-6045,6638,-7403,-636,305,1628,382,-368,-62,390,-319,-160,422,-417,-68,0
968,3043,6508,1114,383,3829,17,22,2588,-151,77,2341,-375,34,2077,-4326,4269,3866,-1037,726,2664,-419,-334,450,344,-406,-6,439,-434,-119,0
858,121,3032,-76,207,2327,-175,273,2224,-343,418,2257,-571,172,2068,-2553,3795,2995,630,1453,3343,-580,-385,685,262,-401,47,529,-437,-132,0
4523,-268,4861,1687,-25,6105,759,92,3201,-231,127,2334,-370,-1,2239,-6027,2422,3587,-243,-220,552,488,-466,-122,405,-400,-132,513,-682,-8,0
2324,1150,5903,721,245,2977,-86,231,2356,-432,332,2170,-535,96,2155,-3850,3219,4635,-388,-395,361,492,-399,-111,497,-377,-146,477,-790,17,0
894,331,3871,46,206,2738,-158,140,2335,-287,200,2172,-685,-92,2099,-13295,10380,-9062,-749,1101,1948,245,-386,-16,453,-285,-100,380,-365,-116,0
1883,390,6658,1148,-89,3244,112,62,2322,-195,284,2217,-263,31,2187,-10120,10744,-11466,-1655,3160,3774,-1057,26,655,-40,-395,52,461,-458,-78,0
3460,1895,6414,1245,617,3910,226,79,2551,2,165,2339,-357,-38,2188,-5214,1837,3770,5034,28512,824,27,-307,270,398,-273,-20,531,-301,-184,0
2129,-139,4991,235,139,2853,52,175,2209,-189,329,2151,-135,87,2033,-5836,6011,3790,-2823,653,891,139,131,136,312,-195,-83,205,-409,-97,0
4208,-2826,3828,917,11,5012,269,-110,2881,-373,141,2355,-579,-106,2238,-11598,11147,-10807,-2720,2852,2994,-1060,-364,285,150,-256,-26,586,-299,-140,0
5703,1206,6180,1435,763,4221,472,217,2637,126,264,2240,-18,16,2257,-10442,9542,-8133,-4862,1925,2464,-1454,299,1426,199,-122,164,565,-398,-74,0
3219,3630,4981,1457,884,2806,199,623,2388,-58,572,2346,116,289,2402,-3695,1823,-426,-450,98,961,570,-397,-146,653,-228,-123,279,-479,-112,0
-335,3056,-1688,1157,1155,8446,1327,377,3883,139,275,2554,-152,113,2278,-7668,4301,-372,22,-171,380,486,-363,-104,356,-378,-145,410,-498,-48,0
8333,2900,2289,375,453,3247,-159,399,2343,-260,349,2197,-402,38,2215,-6472,600,1389,362,-165,209,480,-317,-110,422,-345,-174,579,-512,48,0
4420,567,234,793,2134,6995,564,199,3457,399,173,2726,-66,18,2400,-2818,2071,-2820,-916,115,1558,495,-408,-63,505,-357,-118,329,-415,-100,0
190,1250,-551,917,1462,7940,937,253,3816,262,72,2665,-221,90,2400,-6564,1520,1648,-58,-162,475,556,-352,-96,621,-338,-191,436,-595,-62,0
3920,555,5270,972,392,5027,285,216,3131,9,46,2525,-569,209,2218,-7480,301,21,-2240,392,2745,-19,-272,412,312,-614,-55,492,-560,-29,0
6386,-391,21,556,1384,7969,1424,129,3954,171,-9,2671,-119,-3,2370,-5385,-740,578,-674,1613,4005,-287,-121,844,127,-522,39,393,-506,-152,0
5744,228,6720,1751,239,4794,123,38,2857,-131,14,2479,-484,108,2293,-11477,12604,-11399,-982,478,1132,429,-335,-99,400,-305,-166,154,-521,-55,0
5179,2758,1712,964,1120,6362,228,263,3697,84,48,2694,-522,14,2338,-6315,2323,188,-2252,884,2474,187,-137,292,248,-329,-44,366,-469,-71,0
2873,-77,8200,1154,235,4194,159,69,2650,-257,184,2338,-288,-13,2291,-9614,3619,-3611,-3157,1464,3134,-131,6,356,161,-307,-16,316,-483,-81,0
5680,643,6711,1386,401,4997,28,31,2880,-43,43,2512,-309,56,2300,-9535,5629,-6876,-1851,3752,3850,-940,293,873,-58,-231,302,245,-403,-73,0
6240,128,4012,1497,775,6018,-262,199,3293,80,77,2615,-535,31,2329,-6238,1254,1873,-698,57,428,327,-267,-68,114,-158,-92,115,-472,18,0
661,-2286,2836,1369,-2548,1898,1069,-2587,1583,943,-1921,1835,-38,-1286,2068,993,689,357,227,81,-51,341,116,-131,244,67,-109,-381,286,160,0
-3243,-1789,1927,-2355,-1641,1902,-2031,-1454,1965,-1724,-1296,1994,-1219,-892,2128,5781,-2368,-4428,967,-404,1204,-29,139,-6,-155,178,-122,-175,294,-57,0
-3119,-1892,6407,-1968,-535,3783,-747,-309,2484,-359,-414,2480,-252,-335,2498,5218,-1668,-5955,936,-2767,4198,460,-212,739,25,322,47,-236,363,-77,0
-5324,390,5865,-2162,-182,4409,-563,-33,2754,-41,34,2342,96,-60,2482,7976,-1,-1201,1600,-1024,3013,-154,76,350,-229,333,-35,-355,400,-45,0
-6137,873,5095,-2530,83,4606,-289,-198,2849,-158,-151,2428,195,-162,2270,10453,-11537,-10109,956,-380,1109,-324,364,-84,-384,392,-173,-347,575,-98,0
-4320,-230,6922,-2185,-134,4432,-296,-198,2829,-383,-65,2424,45,-150,2297,7296,-603,46,28,332,393,-495,396,-124,-440,282,-141,-282,783,-6,0
-6701,-189,2906,-868,-1311,6058,-255,-212,3169,-16,-67,2461,494,-109,2322,8432,-1916,-1120,1731,-1232,2392,-137,197,216,-215,345,-40,-162,701,37,0
-6314,-1795,5358,-1288,-349,3754,27,-249,2512,87,-280,2284,154,-260,2345,5509,957,-134,2205,-1981,4313,490,97,773,-263,558,-71,-293,472,-68,0
-5949,-1914,5997,-2577,-200,4846,-393,-151,2899,-109,-33,2436,547,-147,2339,8629,-6469,-3456,2468,-1610,2358,107,132,223,-101,352,-33,-235,568,-37,0
-6703,256,6137,-2257,-329,4721,-259,-173,2787,335,-187,2305,340,-119,2281,4007,-1266,-4812,1200,-3757,5407,1127,-401,1134,4,218,105,-266,397,-77,0
-9142,-11984,-2278,-1173,-2259,7777,-713,-342,3241,-122,-253,2502,235,-261,2211,4036,-919,-3498,3259,-2226,5184,565,-124,1196,-133,404,133,-399,386,-101,0
-2722,-4050,-109,-652,-731,7202,-829,-126,3477,-283,-27,2576,322,-90,2224,6836,-4251,-6324,1962,-3263,5495,633,-346,942,-211,252,45,-413,261,-72,0
-2128,-2194,8049,-911,-627,3645,172,-410,2475,305,-451,2307,367,-157,2285,11604,-11310,-11121,3061,-3341,4792,1218,-331,953,-56,373,89,-279,387,-102,0
-7241,-915,4124,-2591,-99,5179,-51,-251,2711,57,-261,2366,490,-161,2199,9663,-3880,-572,4095,-1697,2895,118,38,273,-143,316,-75,-304,366,-53,0
-9654,-733,4247,-3183,-668,5391,-603,-293,2876,-79,-138,2307,297,-224,2237,8485,-3078,-3923,2993,-2406,2978,703,-233,482,-166,203,-14,-303,284,-85,0
-5510,-2647,1169,-3039,-410,4846,-410,-348,2972,-346,-172,2535,341,-208,2300,10917,-13322,-10285,6104,-1032,4088,1632,-527,1593,34,194,207,-379,408,-49,0
-1801,-1031,3508,-146,-734,2526,88,-605,2284,-28,-540,2265,313,-482,2202,8377,-3122,-5357,1581,-2779,3666,238,-149,561,18,275,29,-311,532,33,0
-6086,-850,2050,-18133,28279,20391,3,-347,2610,141,-399,2358,301,-409,2343,12246,-13226,-12449,2720,-4396,4197,1358,-607,1292,-10,198,155,-358,313,-72,0
-7877,-425,4866,-1481,-714,4324,-115,-346,2620,8535,-1505,1840,310,-350,2342,7256,-4039,1034,2135,-1056,1847,185,242,166,-331,315,-75,-188,820,90,0
-22055,-5609,-60,-2337,-724,5292,-414,-537,3036,-355,-419,2469,248,-517,2147,7297,-960,-2604,1266,-3440,4758,890,-249,940,-19,325,41,-263,540,-43,0
-9293,-7572,-4366,-2739,-1384,6591,-786,-305,3063,-351,-188,2402,248,-289,2193,10819,-13968,-10956,5469,-4001,3030,1073,-922,1439,-5,141,170,-402,341,14,0
-6817,-1598,902,-3235,-7,4796,-401,-363,2894,-11,-271,2409,66,-364,2357,8556,-686,181,3512,-1133,3163,244,-29,484,-304,257,-6,-354,361,-20,0
-3147,-2440,7266,-1518,-586,3497,-349,-468,2482,327,-598,2193,218,-453,2285,8220,-2569,-3579,3935,-2361,4279,233,-237,512,-83,273,-4,-299,220,-46,0
-7831,-752,4109,-1833,-733,3944,-407,-585,2753,205,-493,2411,107,-346,2395,5422,-2695,-4995,2586,-2273,4853,725,-254,904,-99,235,33,-345,312,-75,0
-8212,426,3716,-3685,49,5012,-1038,-472,3143,-600,-415,2402,57,-382,2276,8730,-12832,-9517,2312,-3840,5861,1188,-517,1088,-213,179,87,-283,392,-71,0
-7342,-5649,-3409,-4080,-847,5451,-370,-727,3122,-124,-520,2444,275,-433,2266,6632,-2579,1749,536,111,441,-303,371,-103,-424,178,-112,-249,497,20,0
422,-441,2208,432,-382,2197,527,-327,2166,544,-355,2212,828,-274,2210,3886,7932,986,-438,138,-142,-487,141,-172,-309,97,-99,-662,-262,-43,0
1450,2483,1612,1258,2522,1668,1184,2298,1636,914,2323,1706,763,2118,1780,-3519,4378,-3201,-760,141,580,-22,-223,-88,115,-194,-99,102,-209,-64,0
578,3156,6695,1190,961,3556,15,1118,2542,-24,941,2319,-171,838,2201,-3715,-404,-954,-615,250,901,341,-363,-105,348,-284,-163,235,-534,26,0
2483,6910,369,2823,-431,7028,805,528,3565,-6,422,2497,-151,436,2273,-5093,3415,1550,-3701,772,2671,-155,-68,369,102,-380,-46,440,-473,5,0
203,644,3110,-71,507,2276,-636,781,2103,-357,519,2033,-445,416,2115,-6237,7703,-9822,-769,5265,5665,-1489,387,1240,144,-184,97,246,-490,-13,0
3188,2466,6923,2194,453,3756,86,685,2541,170,512,2217,-366,430,2210,-10904,14148,-13565,-3098,6015,3851,-905,734,574,209,-88,19,142,-288,-79,0
847,151,3123,295,116,2501,-145,314,2338,-109,261,2262,-60,223,2289,-8596,4628,-1027,-2855,1848,3231,-264,117,573,-71,-351,27,353,-535,-84,0
6853,2303,1285,2535,281,4679,333,295,2791,84,293,2417,-254,360,2270,-7205,11952,-7091,-1072,1024,2398,162,-455,-14,374,-446,-170,211,-526,-104,0
5173,-1138,5250,1100,150,4088,265,23,2665,-172,123,2257,-250,208,2329,-9007,2689,175,-3805,1198,3075,-149,-262,270,35,-489,-56,390,-489,-37,0
4004,1743,6161,2203,262,3880,186,359,2504,133,341,2285,-97,268,2366,-8800,1013,-722,-4128,1730,3578,-385,88,551,139,-421,-33,236,-489,-93,0
746,170,3410,315,147,2578,-127,277,2390,-203,281,2269,-214,364,2381,-7328,13761,-9217,-1998,517,1544,423,-492,-124,320,-454,-154,180,-749,-76,0
251,436,3166,135,366,2485,-214,546,2301,-259,468,2136,-276,260,2213,-10275,12968,-12703,-1900,4436,4921,-912,638,848,158,-119,52,543,-193,-179,0
6110,5241,-3587,3111,1542,7623,991,348,3663,266,281,2607,-250,295,2290,-7001,7598,-6291,-2678,2579,5252,-755,453,936,292,-278,70,355,-406,-40,0
10632,5290,-919,3112,1092,5325,720,695,2998,360,494,2397,-229,320,2236,-10103,2854,-625,-1958,1079,2057,128,-95,206,277,-247,-47,344,-502,19,0
6648,-1113,3965,2693,-58,5873,399,273,3075,304,175,2477,-186,295,2283,-7503,12835,-8299,-2013,876,2051,216,-427,-57,308,-420,-135,158,-745,11,0
536,513,3081,172,512,2426,-302,643,2207,-118,467,2123,-389,280,2200,-9774,4206,-506,-3444,2010,2377,-57,138,330,179,-198,-48,341,-141,-42,0
3164,-65,3998,408,424,2619,501,204,2368,-87,540,2267,-233,323,2306,-7872,3739,-5293,-3435,2328,3161,-117,239,500,115,-185,20,264,-338,-75,0
617,590,2757,300,378,2408,13,421,2241,-165,463,2166,-42,301,2254,-10360,2128,282,-6,-164,387,394,-442,-127,342,-317,-134,228,-788,48,0
5388,-812,5742,1818,-369,4277,225,136,2753,46,191,2425,-136,252,2358,-6870,12875,-7163,-6058,2011,1332,-1643,533,1817,225,-236,296,275,-419,-93,0
5771,2201,4951,1556,634,3486,297,528,2460,99,491,2234,-253,260,2262,-6470,2311,-5389,-2234,3339,4775,-567,376,824,-7,-354,48,84,-773,-92,0
2813,1257,6249,1225,339,3375,301,479,2425,-123,750,2336,48,354,2283,-10000,3999,-210,-1257,2015,2575,-38,43,445,20,-214,44,165,-348,-96,0
3045,2684,6297,1132,469,3529,382,297,2637,-68,271,2400,-7,213,2426,-8110,2598,292,-3276,1050,3103,19,-71,522,246,-455,-66,346,-499,-64,0
6730,5533,-4267,3175,1835,6243,1268,588,3234,438,615,2428,-92,497,2254,-9930,2892,-804,-2926,1148,2827,-65,-137,379,141,-496,-46,243,-490,-58,0
768,736,-666,1303,1427,7099,1053,185,3463,305,391,2523,-4,458,2294,-5469,11409,-10432,-443,3879,5151,-916,387,981,-158,-295,106,89,-709,-26,0
686,462,2964,3,525,2375,-138,493,2296,-110,432,2294,-244,429,2288,-9301,12506,-10854,-3302,4808,6473,-1518,680,1164,82,-266,67,391,-581,-10,0
5400,2458,-2934,2730,1400,6288,1101,301,3271,364,417,2588,-90,330,2305,-8899,2590,-294,-2371,1398,3133,-116,-63,469,-9,-450,-31,190,-563,-86,0
6756,-1933,4248,2109,-135,5265,754,-141,2961,231,125,2371,-272,182,2277,-8656,7853,-1539,-1932,2613,3862,-127,-37,422,129,-406,-6,198,-577,-64,0
3938,2051,-1218,2977,-25,7034,672,271,3749,-5,255,2549,-260,355,2301,-3398,3363,1511,-2008,501,2122,-23,-155,373,397,-487,2,259,-665,-82,0
3681,-8938,4902,749,-2606,1988,711,-2064,2102,612,-1734,2186,38,-1365,2184,209,-40,168,377,180,-143,241,121,-124,252,103,-144,320,529,54,0
-3709,-2069,2048,-2431,-2059,1817,-2395,-1368,1845,-1855,-1212,1995,-1281,-794,2163,1066,-1295,-2333,-110,-94,589,216,44,-102,27,55,-107,-675,699,32,0
-7071,-5069,4276,-1205,-195,2831,-997,-73,2254,-1142,-64,2133,-687,-198,2143,6443,-8919,-7003,-60,-1033,1515,-63,31,118,-81,197,-126,-221,570,214,0
-5763,-1643,3951,-2295,-115,4301,-180,-226,2570,-102,-342,2312,30,-132,2240,6897,-10644,-8052,3068,-2444,5397,904,-475,1040,-152,261,15,-264,481,-58,0
-2772,-560,6766,-709,5,3269,-215,-64,2444,299,-550,2361,11,-141,2153,7023,-11592,-8665,-119,-2588,3735,219,-155,686,99,377,43,-274,555,-85,0
-4493,-93,5600,-1573,63,4545,-220,-104,2788,89,-161,2323,210,-253,2283,8166,-9104,-1825,210,-2188,2426,190,-105,726,136,466,99,-366,467,-87,0
-1002,-2435,7487,-480,-332,3206,-9,-95,2495,100,-219,2315,388,-104,2246,5304,-1510,1130,1839,-596,2023,-9,272,291,-134,506,-41,-339,539,-78,0
-8062,-7832,-2810,-2675,-1275,7227,-102,-439,2967,-153,-252,2485,409,-164,2113,4696,-2890,1393,1635,-1180,2565,-107,80,449,-310,566,-91,-206,491,-92,0
-5978,365,5376,-1583,-94,5249,-87,-144,2748,-67,-60,2435,217,-209,2043,3129,-4088,2220,23,214,534,-270,545,-108,-406,446,-143,-215,592,-64,0
-781,248,1784,-1757,277,6705,-623,346,3729,-79,146,2662,309,-44,2318,2052,-2235,-4284,951,-1384,3254,262,227,522,-219,529,-21,-244,613,-101,0
-2185,229,6901,-478,-142,3346,-204,-6,2474,386,-483,2246,209,-207,2169,3786,-4565,1214,821,-1687,2878,122,0,488,-311,431,-18,-282,675,-48,0
-4846,1918,6696,-1017,-6,3861,-222,85,2532,219,-441,2501,200,-225,2153,5273,-7370,-7189,2763,-1932,4234,624,-116,1040,14,473,120,-148,672,-94,0
-4858,-2455,-2625,-1702,-1531,6956,-897,142,3339,-292,86,2449,354,-128,2379,6498,-10938,-6628,4020,-1833,4957,715,-214,1374,-154,449,166,-212,723,-152,0
-3662,-1719,-1191,-1207,-1828,7206,-631,2,3571,-478,145,2639,261,-224,2259,4117,-6637,-1985,433,-2649,3524,619,-115,819,-171,389,102,-589,353,-116,0
-4334,-2111,6439,-1509,-164,3592,-357,-388,2556,406,-1141,2420,-93,-274,2158,6687,-5745,858,2135,-1198,2123,118,63,319,-115,329,-69,-494,409,-108,0
-4256,-874,6772,-1190,-390,3438,-415,-242,2494,-137,-557,2369,-1,-292,2077,3481,-2391,-4887,2868,-2544,5123,314,-217,865,-171,455,24,-506,323,-87,0
-8059,616,3003,-1893,-1228,6923,-812,291,3205,-373,207,2602,285,-177,2419,8484,-6102,-4083,2291,-1830,3475,237,35,597,17,631,-39,-159,779,-91,0
-8528,1703,4421,-2434,-609,5942,-337,-416,2843,-143,-298,2240,206,-264,2188,4479,-5309,3242,822,-939,1585,-129,223,220,-420,287,12,-211,512,-75,0
-5717,287,-239,-2269,-814,5855,-909,-52,3087,-519,-47,2473,-163,-268,2283,3581,-894,-3568,163,-2089,3821,942,-63,1052,-91,528,103,12,717,-131,0
-3875,1302,6494,-1257,116,3387,-607,80,2449,0,-576,2437,-27,-104,2279,8406,-15002,-10199,2602,-3842,3534,1431,-662,1274,19,222,218,-679,425,-87,0
-2059,-2920,7214,-1409,-576,3700,-351,-592,2504,127,-745,2178,119,-459,2299,7949,-12850,-8703,6526,-2072,3415,872,-542,1667,206,284,292,-315,523,-90,0
-8791,1849,4174,-1392,-868,4874,-872,219,3047,-376,-96,2614,194,-235,2393,3506,-938,-3134,-67,-2640,4128,910,-126,1112,-135,350,157,-305,497,-65,0
-12325,-8912,-4290,-3558,-1112,7445,-771,-537,3204,-508,-283,2343,131,-468,2290,9311,-8834,-6037,1844,-2416,2700,-61,-148,529,43,400,-52,-348,467,-4,0
-7421,-260,-1556,-2776,-1561,6608,-1300,-421,3330,-697,-466,2449,-191,-505,2193,5591,-4331,1427,1324,-1721,2495,236,67,485,-206,418,-4,-253,530,-78,0
-3675,429,8299,-1628,-1,4019,-296,-338,2634,200,-555,2352,137,-267,2355,5951,-4720,1368,2554,-1214,3087,-54,-87,562,8,516,11,-407,590,-18,0
-6080,165,5893,-2181,-380,4275,-372,-354,2603,231,-646,2277,-10,-271,2345,6817,-5701,-401,708,-2142,3380,667,-166,785,-128,308,81,-250,444,-102,0
-5059,-680,7730,-1339,-461,4037,-241,-383,2621,204,-576,2325,262,-289,2380,7827,-12557,-9199,1733,-2521,4269,1532,-380,1254,-77,252,179,-274,466,-114,0
-7284,1407,2655,-2093,-1276,6668,-590,-17,3149,-401,-58,2544,179,-100,2338,6846,-1261,129,-59,-2278,3345,308,65,640,97,449,58,-234,487,-95,0
-3376,601,6708,-1214,-74,4314,-145,-232,2734,147,-352,2334,519,-443,2292,1484,-3063,1264,-523,-823,2211,681,235,575,-77,376,45,-365,613,-68,0
-93,3746,2878,204,3434,1910,109,2580,1869,158,2533,2034,227,1480,2105,34,-589,661,-538,-483,-18,-323,-65,-72,-164,-35,-97,-190,-152,-68,0
5859,-777,3276,3291,634,3661,2745,514,2421,2354,499,2100,1436,602,2121,-5363,1585,587,345,1928,2644,-288,146,520,-221,-222,12,30,-305,-75,0
4635,-3044,1097,5373,-2341,5273,1077,-74,2906,740,-87,2316,294,159,2331,-8572,2296,58,-3310,1183,2625,35,-144,365,66,-377,-29,249,-485,-39,0
4570,811,2215,2755,252,5830,674,121,2957,417,0,2362,-189,246,2316,-6368,2875,2512,-2213,1048,2104,267,-168,301,93,-499,-112,69,-429,-64,0
6142,-1073,2849,2530,259,4553,364,500,2735,105,358,2167,-107,320,2201,-6203,5062,791,-2173,1720,2485,-24,-101,411,97,-517,-72,286,-444,-69,0
3518,-107,5491,331,449,2888,-97,423,2304,-415,565,2096,-432,213,2255,-8888,14419,-11736,-981,679,909,200,-336,-84,291,-416,-161,0,-673,24,0
3466,-1025,7108,1331,-189,4228,-93,190,2603,-162,236,2326,-281,161,2224,-2115,2418,615,-727,1538,3387,-40,63,699,125,-492,71,157,-522,-76,0
4640,-1472,6117,1776,-455,4551,126,198,2813,-139,138,2255,-505,318,2253,-4987,5506,-6465,-495,3472,5316,-901,493,1130,145,-184,145,238,-544,-3,0
3439,4060,-3740,1209,1659,8319,1030,94,3659,-45,145,2530,-447,206,2323,-6842,2806,-730,-974,2634,4477,-368,49,824,29,-462,56,216,-640,-61,0
2271,1374,-175,1318,969,8804,788,174,3870,89,53,2524,-615,246,2318,-7571,5674,1198,-25155,-17203,-9243,-128,-370,160,448,-513,-89,306,-492,-108,0
3100,-341,8707,2592,-457,4280,554,-50,2608,16,104,2307,-215,82,2392,-3940,2992,1583,-2081,947,2708,-56,-215,426,192,-655,-45,258,-667,-49,0
4484,-281,6986,1493,-155,4836,259,203,2896,129,149,2373,-322,312,2142,-4624,2605,360,1066,2680,4521,-245,140,1047,34,-470,87,268,-628,-79,0
6716,-1872,4127,1567,-442,5416,281,-113,3065,74,-35,2490,-292,94,2221,-3177,981,-1164,-1220,342,1404,348,-551,-80,327,-407,-139,273,-597,-65,0
3897,-1052,3971,711,1053,6789,726,-239,3554,219,-166,2600,-327,199,2288,-7899,3124,145,-2228,1036,2787,-263,-189,437,55,-570,-46,253,-593,-80,0
1007,1439,6838,512,17,3525,-30,81,2530,-390,316,2365,-512,176,2142,-931,3568,-4871,-606,3019,4589,-805,203,1161,-56,-510,128,344,-495,-84,0
3746,-2237,6805,1323,-385,4456,186,-95,2781,-218,32,2328,-294,115,2242,-5683,11252,-8240,-949,342,1223,328,-475,-41,350,-436,-147,87,-717,7,0
3809,602,-16,1125,1486,7085,296,324,3380,49,178,2522,-412,292,2256,-4941,2820,1263,-1184,1155,2830,56,-300,309,74,-490,-14,269,-532,-107,0
3994,-1319,7189,1295,-25,4600,102,84,2773,-50,53,2339,-516,122,2280,-7078,14501,-9950,-343,737,1941,77,-522,-2,371,-467,-153,119,-697,-72,0
1513,1286,-152,1969,614,7505,1038,104,3917,122,216,2669,-402,170,2261,-6571,8312,-8760,-495,4082,4667,-1135,627,1353,-7,-303,109,156,-510,-115,0
1582,835,6353,549,15,3262,162,-20,2428,-137,235,2380,-337,109,2365,-6811,2218,-941,53,-231,318,364,-569,-150,289,-443,-164,186,-808,63,0
4151,-1700,3465,1600,416,6702,477,-218,3381,107,-166,2611,-211,24,2402,-8871,2109,-1319,-538,2140,3323,-204,-46,585,26,-490,41,247,-575,-62,0
7501,-2549,6104,1236,171,4664,171,176,2825,9,93,2353,-223,139,2283,-5286,13435,-8024,-3442,3373,5170,-1779,885,1511,205,-371,104,259,-642,-91,0
4616,-140,179,1492,1575,7840,1023,22,3868,91,194,2675,-413,259,2299,-8675,4099,-151,-2262,1662,2057,-25,-299,242,-111,-545,-53,156,-668,-78,0
5903,4528,-2959,3090,527,8034,739,380,3917,-84,266,2620,-297,304,2226,-5679,255,-725,-2027,1465,3331,-94,-291,354,-112,-629,-53,166,-561,-107,0
5172,888,-1248,2084,356,7077,1074,-322,3641,249,-67,2591,-195,-5,2222,-9503,5611,-493,-1849,1802,2692,-252,-108,425,-36,-592,-37,57,-684,-98,0
7637,-2372,5415,1686,-492,4695,194,-17,2847,9,11,2469,-397,-43,2245,-4983,5578,-4926,-1058,2892,4749,-751,547,1215,80,-323,172,29,-569,-56,0
8320,-2147,3477,1506,784,6459,745,23,3190,148,211,2378,-241,269,2149,-8244,14544,-9288,-820,696,987,79,-339,-80,191,-388,-155,91,-525,-56,0
432,982,338,713,168,3663,127,31,2261,-256,292,2148,-190,208,2166,-4322,9754,2554,-334,-86,-94,217,-414,-142,89,-311,-119,249,-666,362,0
-597,-4724,2076,269,-3500,1798,-4,-3345,1529,140,-2892,1705,-611,-1246,2006,-2613,-939,1126,264,22,-41,209,71,-110,142,73,-129,0,235,90,0
-4038,-2315,6517,-2549,-697,2147,-2302,-683,2019,-1864,-711,2036,-1282,-272,2193,3693,129,2091,136,-169,329,-178,291,-99,-106,231,-145,-44,515,3,0
-2021,-624,5776,-862,-122,2958,-805,49,2453,-496,-289,2417,-187,-238,2231,3119,-2606,-4588,271,-192,611,-238,346,-108,-245,361,-158,-221,461,-29,0
-5072,1403,1881,-1834,-1011,7131,-653,136,3252,-283,28,2562,75,-137,2164,5939,-11852,-8015,1244,-588,1141,-149,439,-76,-229,401,-151,-222,520,-94,0
-2108,-715,9113,-989,-400,3966,-109,-251,2667,-87,-186,2314,306,-302,2212,4465,-4769,598,695,-1761,1971,-109,162,278,-67,488,-88,-56,617,-112,0
-5811,114,5814,-2342,502,3960,-141,-28,2579,-297,7,2393,488,-335,2076,6661,-3151,361,1817,-1701,2544,26,125,312,99,436,-47,-171,516,-84,0
-2121,-876,6977,-729,-108,3439,-125,-157,2518,77,-254,2362,314,-321,2206,4633,-9611,-9244,1974,-2796,2843,35,178,216,40,469,-42,-178,483,-100,0
-5181,1116,6525,-771,-254,4368,-7575,15508,-16887,-328,-136,2282,216,-109,2154,5499,-2023,-1781,658,-330,866,-185,408,-56,-268,455,-169,-88,524,-98,0
-5857,2355,5019,-1721,491,4503,-203,94,2652,-41,13,2333,291,18,2266,6449,-6923,-5644,1358,-2342,3700,327,-165,657,151,390,45,-194,518,-92,0
-5913,707,5846,-1324,-334,5153,-195,-118,2891,-131,-34,2499,359,-351,2301,5687,-15111,-10394,783,-541,1054,-120,521,-68,-328,550,-179,-156,610,-102,0
-3065,-340,-600,-2355,121,8215,-1320,38,4039,-91,-139,2646,275,-110,2280,5904,-2268,3054,155,-425,1591,332,376,431,-222,593,-12,-54,683,-62,0
-5973,2300,7935,-2077,628,4640,-120,59,2791,-78,111,2423,202,130,2367,4508,-12529,-7021,1741,-2557,4466,1189,-650,1359,-100,354,144,-163,548,-117,0
-576,-493,3181,-259,-410,2416,239,-705,2266,159,-523,2191,406,-656,2181,170,-6575,4228,970,-1177,1126,-200,154,55,-249,237,-85,-211,544,54,0
-9288,1724,4180,-2354,-44,4730,-202,-334,2626,-179,-293,2368,241,-203,2345,7009,-14005,-8922,1796,-1056,2345,-76,440,-61,-324,435,-172,-382,458,-58,0
-1732,-285,6280,-482,132,3228,-248,90,2587,92,-193,2389,53,-191,2357,8154,-4902,-373,2014,-1523,2305,122,143,253,-225,461,-55,-255,481,-65,0
-2527,58,5126,-442,-441,2879,-247,-327,2351,250,-668,2238,143,-379,2255,5079,-3741,-506,1082,-2201,3815,175,166,567,-415,515,-3,-141,699,-31,0
-4276,-1353,-216,-2141,-314,6978,-154,-388,3487,-11,-198,2584,385,-323,2227,7216,-8342,-5434,2096,-2190,2635,-70,-39,454,24,624,-24,-41,549,-112,0
-1914,709,8329,-531,121,3514,-138,105,2518,200,-221,2298,430,117,2263,5738,-4867,-1797,-1477,-2312,2901,835,-130,974,69,436,113,-159,728,-20,0
-3363,-174,9066,-991,-138,3847,-122,-105,2505,324,-469,2317,347,-221,2304,6044,-2027,465,-233,-1923,3710,160,121,574,66,501,15,-271,627,-62,0
-3230,-324,6638,-368,-208,2879,-131,-214,2429,62,-349,2228,147,-125,2194,4200,-1275,-1615,287,-74,709,-408,455,-77,-241,465,-195,-363,782,149,0
-8623,-1329,3785,-2324,-298,4590,-337,-405,2785,-275,-319,2413,528,-310,2369,6649,-1633,-985,1357,-1452,3276,50,98,559,-205,583,-64,-151,483,-76,0
-3224,-1525,6719,-829,-182,3116,-361,-38,2463,95,-342,2292,421,-247,2314,2905,-4047,-5291,283,-3478,4683,540,-437,1046,-73,434,57,-207,610,-122,0
-6907,709,5013,-2954,369,4841,-357,-225,2747,-168,15,2328,143,-84,2346,8290,-3808,-1162,1287,-1279,2327,-72,266,246,-318,530,-67,-165,520,-91,0
-2627,112,6568,-633,-45,3222,-125,-134,2446,226,-423,2318,210,-135,2369,7563,-3205,-372,121,-1934,3558,555,-28,678,84,491,-8,14,758,-35,0
-7947,1802,3193,-2655,710,5386,-639,23,3060,-321,32,2499,100,-185,2357,10135,-4907,1642,2049,-1059,2001,159,419,150,-285,559,-73,-1,621,-75,0
-4435,61,7497,-1626,-138,4232,-188,-456,2637,201,-550,2290,356,-249,2344,5814,-5999,-5698,392,-585,1097,-97,418,-37,-388,459,-156,45,585,-34,0
-7097,-1030,-1020,-2220,-690,6773,-480,-291,3358,-288,-183,2504,242,-288,2240,3467,-5119,3122,83,229,215,-369,554,-151,-194,386,-101,-216,504,-36,0
-4292,-3941,106,150,-579,3011,479,-608,2298,524,-517,2136,1170,-352,2166,3224,-541,1018,-228,-1,40,-347,730,-232,-246,193,-108,-520,312,61,0
4431,3248,2384,2765,2560,1496,2556,2504,1573,2223,2395,1694,1331,1743,1976,501,-694,-1163,277,449,966,-20,-175,-22,-27,-64,-89,-211,-339,-48,0
2735,800,3864,1559,1086,4473,407,1269,2680,399,1109,2340,-63,1086,2073,-5926,3806,553,-66,-52,280,290,-310,-74,14,-318,-152,-5,-515,-68,0
5369,-2513,4438,2349,-498,5432,235,327,2858,256,254,2401,-235,365,2296,-4721,8119,-6914,-491,517,791,412,-436,-65,161,-311,-115,70,-586,27,0
5074,-1336,6480,1714,-335,4794,149,188,2884,65,149,2462,-136,121,2315,-6623,3374,-2714,-450,314,729,75,-466,-123,231,-368,-168,99,-558,-49,0
4795,-2049,6373,552,312,4400,205,1,2851,-18,63,2387,-283,250,2260,-5557,11447,-9419,-965,1353,1524,184,-497,-52,177,-525,-141,87,-625,-92,0
3990,-1548,7914,1038,-11,4232,169,-13,2699,-5,66,2360,-290,95,2312,-4322,3236,499,1565,2276,3119,-171,56,1165,-160,-346,251,158,-520,-89,0
9053,-841,4467,2020,672,5367,483,-200,2989,142,-114,2440,-201,31,2280,-28,7463,-4939,-389,393,1379,123,-468,-19,314,-534,-169,45,-584,-76,0
3256,1561,-1647,1720,1038,7457,1132,86,3677,221,243,2610,-210,223,2309,-4747,12250,-9755,-1099,970,1499,227,-555,-91,256,-497,-153,23,-639,-34,0
9234,6516,-715,3305,-634,8252,1611,-459,4050,127,-17,2556,-103,-91,2240,-4528,11054,-7009,-1252,611,1409,235,-504,-48,204,-478,-149,45,-640,-72,0
2068,-626,1041,1509,1085,7682,580,-58,3743,237,-49,2714,-145,132,2278,-4228,11433,-9054,-891,704,1488,102,-523,-76,142,-514,-171,-8,-525,-125,0
2137,-84,690,1588,-433,7278,886,-127,3930,63,65,2665,-382,190,2211,-3670,4203,-4415,339,3275,5351,-957,515,1088,15,-307,100,136,-470,-65,0
6374,-1859,3943,1871,-113,5437,387,73,2793,230,-29,2349,-364,206,2269,-3190,5361,-3203,-210,275,846,387,-481,-70,149,-427,-113,-11,-694,-21,0
5071,-1578,2376,2781,-526,6089,322,259,3029,213,151,2350,-129,434,2085,-5291,10269,-6694,-977,906,1593,-18,-510,-43,235,-572,-177,96,-458,-146,0
3781,1083,-726,1689,879,8822,844,-142,3757,73,117,2589,-332,204,2239,-6366,5406,-284,-165,124,551,194,-525,-94,203,-511,-164,-64,-726,76,0
6393,1564,-849,2743,-159,7623,767,302,3545,65,195,2545,-254,120,2315,-6671,2991,906,-3372,2000,2288,28864,-28090,8402,-50,-507,-79,295,-884,210,0
6234,296,443,2847,444,4883,977,196,2895,605,196,2457,-7,177,2341,-5236,3357,-95,-144,28,639,146,-459,-68,181,-480,-140,90,-754,-10,0
4851,-836,4152,2254,-621,5112,308,233,2867,255,160,2420,-312,295,2288,-3563,7486,-6562,-966,767,1450,-69,-443,-60,213,-553,-169,25,-708,-10,0
6729,-4394,6660,2512,-1238,4868,163,-179,2523,237,-282,2386,-249,12,2358,-1257,12476,-7844,-440,361,923,207,-562,-81,200,-553,-163,213,-663,-61,0
9497,3910,-4537,949,406,3584,185,389,2339,-29,477,2188,-603,85,2235,-3235,1465,-4297,-283,349,784,148,-490,-84,241,-527,-161,158,-726,-25,0
8031,87,-1936,867,292,3385,244,537,2493,-106,579,2164,-348,73,2201,-3850,9392,-9384,-664,948,1057,18,-516,-91,247,-503,-150,279,-603,-88,0
6995,-1464,3682,528,-74,3111,146,171,2478,-3,220,2393,-304,96,2365,-1928,11038,-6216,-1192,1080,2262,0,-558,-60,214,-580,-155,152,-617,-100,0
4471,-3816,3728,2570,-1589,5099,382,-216,3002,130,-105,2455,-181,70,2349,908,11192,-5564,-1597,967,1933,63,-581,-68,417,-562,-182,-123,-729,-57,0
6460,-1959,5817,1237,-180,3995,93,147,2768,76,67,2464,-198,136,2336,-4947,231,-123,-211,-2,834,293,-633,-104,235,-552,-142,231,-904,29,0
6112,-2489,4518,2206,-1067,4833,68,-30,2873,69,-40,2518,-195,187,2282,-3049,16135,-10054,-1004,1339,1835,2,-514,-74,130,-556,-149,98,-650,-36,0
4108,94,-110,1790,932,6137,525,-47,3259,82,141,2584,-193,168,2353,-1871,6073,-5550,-984,615,1362,64,-510,-89,235,-556,-171,18,-615,-59,0
4884,4030,-895,2651,-947,8194,1139,-345,3693,47,255,2607,-18,87,2374,-4208,11412,-8350,-1092,846,1395,143,-558,-92,186,-531,-139,-2,-628,-57,0
8975,-2556,4543,2976,-962,5138,390,78,2856,269,-26,2365,-168,192,2280,-6423,5788,-490,-1477,1948,2408,-58,-211,322,-152,-553,-57,-21,-662,-61,0
5704,-1995,3874,2718,-905,4941,269,152,2815,223,73,2351,-232,334,2221,-5253,6574,-5947,-299,411,888,16,-484,-36,209,-573,-165,73,-592,-57,0
3815,664,7360,1243,-100,4275,97,171,2780,-80,198,2413,-187,221,2292,-94,10322,-7134,-1129,1193,1381,50,-414,-60,87,-443,-131,-168,-567,3,0
704,-195,2173,291,103,2070,225,11,2001,124,87,2022,-117,-70,1989,667,6190,-1321,27,-262,-92,-33,-191,-132,-43,-163,-102,-1675,448,304,0
-5532,-760,2619,-3027,-2101,1844,-2321,-1909,1945,-2004,-1598,1851,-1219,-832,2198,631,827,-751,1012,-373,660,-315,327,-94,-87,112,-89,69,306,-64,0
-2448,935,2757,-1612,272,2826,-951,-84,2256,-727,-228,2143,-304,17,2155,687,-7210,-3414,1167,-917,1715,108,293,-22,-288,329,-99,-121,380,-41,0
-4196,1959,2716,-700,155,3043,-35,-305,2351,-113,-203,2214,222,-49,2165,6414,-9256,1614,15,9,-110,2,-2,-124,25,1,-136,-52,-1,-137,0
102,98,2222,352,-5,2193,119,17,2188,66,-4,2163,186,135,2201,-2131,3638,-531,248,391,1025,21,-194,-49,165,-251,-77,-36,-327,-57,0
-5386,-9249,402,-3363,119,5577,-1217,-107,4207,-336,58,2640,206,126,2309,-637,626,-2185,1631,1724,4599,-299,373,836,-121,-290,36,110,-422,-58,0
-348,-256,3176,-142,-48,2407,151,-120,2241,134,-41,2164,214,103,2229,-4799,3248,-431,495,1063,2528,236,-261,435,-20,-422,4,76,-566,-64,0
-45,-68,2448,264,-129,2199,81,-29,2155,138,-82,2179,220,60,2173,-1962,3697,275,-299,1471,2227,118,-375,326,-135,-498,0,-57,-605,-117,0
-788,-250,3676,-122,-27,2455,438,-144,2240,283,-38,2080,159,-85,2177,-5240,4570,-2737,2715,1608,3176,-1297,788,618,203,-519,55,97,-651,-50,0
-4399,-4973,-1312,-1750,-811,5495,-429,-525,2907,-148,-187,2194,175,-124,2159,-4553,10809,-2533,749,1826,3286,-362,350,604,-36,-429,41,43,-571,-36,0
-370,-56,2929,-131,9,2414,307,-14,2215,378,-77,2222,143,1,2214,-3427,4165,-1443,1172,1362,2818,-114,-229,417,-30,-646,15,-51,-640,-117,0
-3216,-1087,6691,-1359,-228,4638,-179,-30,2670,-58,20,2332,149,25,2204,-4144,4495,326,-1393,2477,2787,242,-128,467,-30,-569,-35,82,-590,-57,0
-183,-49,2388,279,-30,2160,156,43,2118,64,-41,2222,74,23,2285,-4255,4772,-409,-1996,2180,2273,-151,-231,345,-88,-750,-51,-114,-663,-78,0
-4362,-2081,3311,-1625,-526,5850,-241,-168,2698,-163,-21,2250,9,59,2176,-1263,15554,-7195,467,4012,3311,-630,876,1207,85,-327,158,107,-528,-37,0
-3804,-6357,-3386,-2044,-1313,6111,-3,-334,2767,-38,-178,2296,124,-52,2121,-1125,4913,-3859,2622,2317,3778,-202,57,530,-23,-509,39,-68,-594,-112,0
-3638,-99,3439,-1350,-462,6463,-221,-142,2844,67,-20,2265,327,41,2156,-1696,4317,1105,2417,1749,3039,20,-168,810,-288,-430,116,-115,-628,-87,0
-2012,2171,3255,-2333,-158,6080,-281,97,2864,-32,162,2306,97,176,2231,-4892,4733,2562,-229,948,1852,-192,-318,287,-191,-623,-54,-71,-688,-46,0
-3815,-9263,-2160,-378,-1352,6697,-306,-550,3198,-77,-210,2378,221,-17,2125,-3787,10691,-9976,-473,828,683,-13,-437,-45,-78,-406,-65,-190,-589,-55,0
-1235,-626,6178,-137,-127,2846,233,-11,2308,175,-47,2284,143,-84,2275,-4365,4930,224,1028,1233,2941,-267,140,520,-190,-478,26,70,-603,-30,0
-775,-135,5753,-379,-226,3244,-118,0,2467,304,-59,2232,204,75,2258,-1280,2906,2,2335,1615,4194,-239,215,778,-119,-524,85,-11,-678,-43,0
-690,-19,4070,-220,64,2772,336,30,2338,144,42,2234,113,74,2234,187,5268,2100,81,775,1427,-62,-345,272,-127,-604,-26,-225,-701,-43,0
-1734,-190,6362,-332,30,3159,-17,155,2427,341,139,2219,285,174,2211,-1580,2365,-398,-311,319,1255,3,-616,1,92,-650,-46,-102,-708,9,0
47,-70,2402,405,-106,2247,247,-15,2156,366,-35,2187,123,10,2174,-2280,-3334,3037,518,-137,63,188,-511,-84,195,-433,-56,636,-965,154,0
1261,3529,1639,1180,2925,1744,982,2314,1986,674,1885,2095,188,1111,2131,746,-2983,2357,-1,99,8,92,119,-49,64,71,-3,-115,294,-18,0
-261,368,2361,-415,310,2172,-355,232,2117,-139,261,2193,-257,52,2171,3760,-4723,-88,206,-1151,2123,257,134,308,110,415,7,-150,643,-98,0
6712,13539,-2119,2502,1428,5546,19,625,2999,65,210,2411,-43,158,2283,1414,-13384,-9984,-925,-3553,3552,392,-878,911,-132,442,163,135,603,-393,0
67,475,2908,38,182,2267,-122,327,2218,-231,200,2071,115,337,2142,1584,-5770,896,158,-1575,1533,38,135,243,-19,388,30,-34,568,-15,0
6372,8695,2200,9,811,6947,284,455,3640,11,81,2580,-267,11,2197,1369,-3970,2270,784,-1413,1325,44,284,222,174,476,28,-82,589,-14,0
539,203,3290,397,33,2494,-229,1,2239,-208,-46,2170,-62,-73,2244,1971,-10348,-6454,-861,-2857,4131,746,-950,1288,22,364,239,197,609,-16,0
551,396,3497,193,119,2468,-179,131,2339,-133,0,2277,-203,-12,2279,969,-11620,-6296,112,-2983,4290,490,-1123,1231,100,265,212,-107,641,15,0
4529,4814,943,975,1910,8009,627,548,3494,308,226,2512,-95,114,2277,5235,-7269,352,814,-1552,2109,130,48,392,31,474,46,-39,615,15,0
116,574,3116,-229,162,2369,-673,-2,2124,-537,50,2212,-342,22,2262,1935,-14268,-7407,429,-3962,4272,253,-860,1462,172,285,248,-59,667,-53,0
-811,2477,5485,596,858,3292,222,484,2491,-438,270,2187,-111,304,2218,2065,-5440,344,451,-1722,1794,-8,-72,317,-158,424,13,-229,473,55,0
2799,13248,-3396,2892,2857,7615,1161,1220,4502,253,472,2684,14,123,2323,4899,-7068,-4665,-2200,-2757,3721,662,-709,900,115,382,113,198,486,-20,0
1377,755,4261,393,235,2600,-484,33,2200,-133,-18,2215,-72,-64,2372,1821,-5144,3838,-31,-1218,1911,86,80,328,-366,858,22,14,683,-67,0
7193,5087,4110,3223,1033,5983,786,395,2960,345,14,2225,196,62,2226,-30,-8055,1709,-2004,-1133,2533,38,-47,405,80,492,57,340,496,66,0
1442,1175,3580,174,657,2499,-534,491,2236,-484,408,2158,-222,432,2226,3535,-7476,-62,640,-2836,2368,-28,-100,372,-87,494,-1,54,527,38,0
27325,-5235,-22431,25,-5,1768,-12,-66,1737,37,-7,1708,255,-51,1846,-4,19,-77,-25,18,-71,-39,8,-63,-14,20,-74,406,-261,67,0
615,1406,4082,-430,712,3602,-171,147,2360,-137,69,2024,-111,-56,1740,-5512,1049,1687,-153,1271,2063,260,132,316,360,-220,-31,171,-344,-111,0
-18,2883,7127,-462,789,3673,-313,191,2149,-451,-109,1906,-211,-79,1770,-3394,2626,2803,-38,1197,1890,339,152,338,385,-329,-4,222,-449,-96,0
1219,1299,3978,-1592,-23,5117,-218,459,2789,-14,236,1987,3,-138,1930,-6133,4270,-3400,-1288,1591,2144,363,350,463,160,-400,-31,353,-437,-85,0
1234,141,1489,-2398,306,5979,-519,351,2907,-245,308,2099,-164,-80,1868,-4351,997,1942,81,1207,2216,229,210,424,191,-340,57,194,-515,-139,0
529,5243,3385,-324,1692,4318,-223,577,2398,-210,208,1884,-211,64,1863,-3127,2382,-3611,1561,2388,3866,-294,137,482,224,-374,29,334,-551,-127,0
-7805,12719,-1580,-513,2310,7075,-671,1040,3749,-447,356,2201,-246,-53,1882,-8774,12284,-7378,-9852,-6,2306,-2163,477,825,390,-298,167,292,-636,-133,0
-7408,14190,-2708,-314,1341,3715,-188,260,1885,-242,8,1819,-246,-25,1927,2477,-727,-2074,265,-413,-121,147,-281,-102,178,-195,-73,-206,-254,39,0
-178,777,2337,814,704,1724,717,609,1725,826,592,1686,904,169,1569,-2193,-4087,1851,181,359,-82,1921,865,17,20,159,-58,-45,201,-85,0
6821,-14856,-9637,1854,-4006,883,1483,-2982,1365,1082,-2246,1457,501,-1112,1820,5758,-6541,-4860,-24,-668,628,-168,76,36,11,155,-95,-306,264,21,0
1056,-4700,3444,349,-703,2130,676,-149,1838,340,-567,1657,168,-173,1772,1369,-274,2312,-316,-703,1464,-289,-247,348,-56,239,-26,-81,289,-77,0
-4883,-3497,1981,165,-1020,3964,82,-90,2377,-255,-313,1881,-85,123,1868,2731,21,1588,-1137,-1368,2201,254,22,257,-77,283,-36,-144,387,-97,0
-484,-5852,3524,746,-722,4137,466,-21,2133,341,47,1809,277,233,1738,3961,-1220,1282,197,-973,1422,-453,41,244,-252,401,-79,-234,411,-86,0
-2635,1539,1652,-192,-1041,6339,114,-265,2647,-157,-140,1881,-24,166,1806,8200,-11624,-6719,5054,-1779,2989,239,-903,984,-273,227,179,-260,504,-104,0
8145,-9930,-1347,2114,173,5958,479,-457,2626,-17,-430,1864,70,97,1758,7438,-9165,-6123,642,-465,764,-309,427,-65,-381,332,-124,-237,611,-80,0
2543,-8540,-604,1124,-2009,4629,594,-366,2321,261,-316,1864,123,43,1890,8620,-10325,-6358,-108,-888,1312,-185,450,-38,-412,453,-69,-351,561,-76,0
-1704,88,1181,739,-591,6003,170,-1245,3248,125,-338,2151,-4,-10,1953,6391,-7078,-5159,166,-487,596,-295,384,-25,-324,375,-8,-266,450,-75,0
-2601,-689,1464,-2080,-759,1567,-2411,-632,1469,-2506,-524,1389,-2083,636,1360,1679,969,1945,151,18,154,-254,-101,-56,-97,-89,-6,-40,-147,-65,0
-5873,7032,-1331,-1432,3674,2388,-1283,2506,1536,-1052,2241,1501,-836,1841,1592,-4586,6423,-4237,-434,278,468,-43,-210,-57,137,-186,-29,297,-377,-34,0
-10268,9652,-1669,-2269,598,6020,-903,463,2967,-564,119,2033,-406,-135,1783,-4977,3864,-2726,298,1971,2618,58,181,415,230,-330,61,347,-439,-21,0
852,33,899,-886,1532,5373,-425,348,2996,-189,367,2169,-123,-8,1858,-4661,5560,-4637,-357,236,586,329,-434,-41,293,-426,-58,647,-521,-44,0
-10702,12632,-3426,-820,1022,2532,-462,397,1816,-452,44,1745,-283,-87,1729,-7590,10494,-5527,-243,650,1004,341,-449,-63,410,-516,-80,213,-531,-77,0
-2937,1824,814,-46,1758,6536,-415,732,3524,-184,192,2161,-108,-124,1840,-5822,7744,-5746,-805,382,710,265,-482,-132,269,-417,-57,502,-634,-117,0
253,122,1951,155,140,1992,71,79,2014,134,73,1939,182,23,1970,-3817,3962,-2574,-236,-70,412,251,-363,-36,258,-380,-66,298,-357,-24,0
240,5378,6746,1539,1448,1613,759,1025,1792,823,871,1601,1071,423,1560,-1268,-102,771,-588,-380,335,447,359,-62,97,184,-27,160,434,-95,0
5248,-10846,-434,4105,-5979,2734,2664,-3209,1431,2210,-2786,1094,1732,-2060,1391,5124,-11776,-5972,-623,-463,896,121,308,-12,-310,417,-17,-47,428,-56,0
1060,-6097,2091,1330,-1612,4224,814,-1147,2249,627,-704,1778,510,-326,1736,1984,-2040,1828,-69,-256,412,-243,310,-26,-163,293,-114,-273,402,-43,0
771,-3949,2052,1064,205,4565,304,-324,2461,256,-119,1972,88,-1,1730,3396,-1831,-2896,-3,-1077,3674,227,-285,581,-242,343,69,-291,394,-33,0
1512,-4171,2081,1106,108,4241,460,-111,2420,278,-164,1896,251,159,1735,3713,-46,2112,34,-1297,2036,-382,12,314,-290,481,-28,-317,557,-70,0
1246,-4746,3343,773,-796,4485,429,-167,2382,233,-51,1841,229,114,1773,6049,-1714,871,-1834,-2154,2572,-156,72,273,-345,438,37,-159,528,-123,0
12428,-7118,-505,1697,-4999,5452,863,-1335,3914,299,-336,2155,83,-37,1848,2770,1777,1956,-1600,-1752,3237,-88,77,263,-309,444,18,-453,580,-24,0
924,186,4781,434,-51,2603,245,-19,1936,308,209,1841,116,150,1788,5224,-601,1085,-32,22,233,-388,476,-44,-422,414,-86,-194,533,-91,0
964,-2140,4466,-831,-1351,1670,-758,-1208,1691,-534,-1021,1759,-724,-733,1785,-965,-1140,560,-273,-260,-16,-343,-205,-32,23,-27,-71,273,-149,0,0
-5815,4829,2166,-3453,2217,1103,-2834,2253,1070,-2558,2023,1172,-1668,1043,1494,-5055,5393,-2064,-95,-55,820,-78,-70,-14,-12,-82,-34,35,-254,0,0
992,2173,1790,-681,884,2664,-636,712,1850,-468,540,1706,-301,312,1747,-4598,6507,-3322,-5699,-523,536,1318,1134,1850,-3,-59,99,197,-289,-29,0
-238,121,1967,-202,-16,1905,-199,61,1897,-203,120,1960,-35,-3,1937,-6387,2098,96,1075,1766,2170,18,-26,201,129,-326,14,193,-434,-130,0
988,277,861,-1122,-293,6011,-484,175,3090,-190,22,2078,-8,-221,1849,-6119,9244,-5018,526,682,1305,150,-390,2,352,-408,-45,205,-494,-84,0
1457,2018,1752,-707,1219,5544,-291,214,3062,-103,251,2125,6,-60,1874,-3763,342,1731,627,1290,2675,86,103,438,287,-336,99,35,-567,-101,0
735,2561,2054,-833,-189,4915,-320,254,2921,-155,224,2045,-14,-273,1827,-4079,2101,-1771,454,2123,3590,-172,223,572,106,-401,37,82,-499,-69,0
-7400,3332,-1262,-1793,-746,6510,-625,691,3239,-161,76,2071,3,-321,1916,-3823,1636,394,1398,1753,2751,-194,141,207,282,-446,-9,180,-532,-92,0
-927,3202,4388,-172,-9,2290,-48,-60,1919,-22,201,1858,46,-354,1806,-3596,2872,3179,208,-435,-34,128,-398,-64,153,-331,-59,738,-63,159,0
7719,6267,4094,1961,2251,1629,2006,1987,1390,1828,1898,1441,1319,1189,1445,-1496,670,1388,1382,584,-276,205,103,24,45,142,11,-69,234,-3,0
3090,-6722,835,2766,-2500,1464,2366,-1924,1359,2163,-1787,1419,1652,-1466,1505,1519,-1363,-1020,-169,-338,900,-8,211,-35,-178,321,-23,-56,288,-47,0
68,-2775,955,880,-393,2891,686,-184,1924,546,-47,1774,286,-12,1794,5733,-1612,-568,-984,-908,1474,131,80,190,148,339,-67,-258,427,-64,0
2558,-2570,3724,1223,20,4113,636,126,2355,540,-70,1904,229,198,1777,6636,-2791,231,-472,-1572,1769,-35,36,260,-130,464,-27,-117,501,-81,0
2939,-3733,3422,882,-179,4434,454,-32,2464,247,-31,1895,66,152,1761,8623,-13948,-8316,857,-2769,3443,540,-485,687,-10,228,85,-93,452,-92,0
10758,-2196,-103,1243,-2693,7132,1011,-830,3830,291,-368,2176,28,29,1850,5392,-4771,-1733,-228,-2198,2191,63,-218,305,-193,305,53,-135,443,-68,0
900,-231,4673,337,-208,2455,118,-117,1938,27,102,1854,-17,18,1862,4721,-2134,1205,352,-869,1140,-81,132,196,-48,401,-43,-282,568,-44,0
3066,-3011,4179,949,77,3522,355,389,2216,301,149,1905,168,258,1792,2435,-590,-1734,74,-113,387,-226,427,-50,-255,396,-25,-117,576,-51,0
-985,-2833,-547,160,-897,2540,-32,-742,1938,-80,-435,1878,-97,-318,1843,-160,310,1831,212,-4,12,-68,235,0,-5324,931,-6233,-325,416,145,0
-4028,-2164,1202,-3472,-1868,867,-3008,-1462,1112,-2664,-1261,1267,-1299,-964,2039,-44,-495,1060,-37,10,87,-285,-69,-28,-234,-39,-43,-247,-268,7,0
-4241,4006,364,-2551,1977,1601,-2083,1468,1421,-1906,1226,1520,-1142,752,1558,252,2620,-1594,-77,141,459,-143,-80,-20,-26,-97,-19,12,-313,-42,0
1791,913,593,-527,580,2300,-391,723,1881,-190,567,1732,-146,484,1932,-1659,2554,-2762,-1103,892,2685,405,440,822,71,-69,164,112,-339,-61,0
-1813,618,331,-792,-746,4848,-477,162,2864,-214,221,2010,128,-146,1957,-2890,259,-154,1241,994,2276,22,-7,351,81,-213,56,68,-392,-83,0
1739,764,1064,-780,218,4795,-165,92,2796,-189,180,2118,87,-163,1777,-5575,1752,1011,125,37,375,297,-386,-13,217,-449,-49,114,-544,-39,0
-10556,734,611,-2121,2817,5556,-276,-146,3142,-145,-176,2144,96,-261,1786,-5514,1777,2128,-14,55,386,208,-345,-4,360,-426,-22,98,-512,-84,0
-3421,4466,4281,-692,-251,4464,-193,-143,2378,19,-276,1844,64,-110,1839,-5603,1883,1928,1767,1775,2510,-13,-118,261,-11,-444,-49,133,-530,-138,0
-8981,-371,1916,-945,1458,5749,-556,102,3392,-287,180,2129,179,-254,1789,-4223,7169,-6174,1423,2302,2937,-8,324,373,223,-362,48,7,-555,-60,0
-2990,3797,1220,-745,-501,5550,-322,187,2487,-34,-41,1912,89,-155,1866,-5168,3740,-310,-177,2027,2261,127,95,379,208,-487,12,110,-451,-75,0
-2342,179,-1602,-1415,-1807,6464,-407,372,2526,-109,179,1943,-12,116,1833,-2044,6093,2965,30,77,144,113,-307,-10,-25,-203,-54,439,-554,227,0
970,3955,2447,2104,2868,1187,2127,2734,1160,1807,2428,1185,1296,1495,1468,721,873,716,187,32,45,240,84,0,279,77,-20,34,121,-21,0
14705,-2285,-2904,3447,-1130,1537,2839,-1210,1336,2471,-1056,1409,1934,-869,1574,4726,-7199,-3394,-228,-295,538,3605,17359,-1914,-10,210,-33,-1,227,-29,0
4383,-875,237,1411,-696,2768,762,-276,1768,508,-107,1689,348,-117,1804,5225,-11062,-4281,84,-1063,1095,10,296,-62,-97,349,-45,-122,462,-31,0
11882,1146,1166,3155,-3502,4005,779,-144,3475,319,198,2177,119,106,1825,7457,-12516,-7838,-795,-2712,2402,171,-282,354,-298,366,65,24,461,-76,0
12409,2000,-231,1067,-532,3623,95,-219,1972,-134,-75,1855,-154,-113,1927,5427,-8645,-4199,-2148,-2655,3522,311,-290,451,-393,356,112,-200,440,-87,0
14871,1024,-1012,2904,1271,6801,1230,-33,3367,393,128,2088,192,-14,1919,7700,-9933,-7903,-2634,-4003,3858,482,-319,427,-230,368,108,18,544,-150,0
7442,1737,2062,2377,-4314,6718,768,-390,3471,208,-194,2095,-4,16,1825,4801,-5547,-3688,-662,-2191,2106,-100,-146,195,-198,408,22,-53,502,-41,0
12627,2137,531,3968,-3264,5798,801,-160,3822,273,93,2275,-204,364,1908,3671,-5430,-4692,-1083,-2194,3366,215,-279,573,31,329,74,-52,576,-80,0
5593,1338,1442,1853,-2473,7358,740,-467,3438,83,-182,2015,-23,-34,1873,4280,-13147,-7912,-2998,-2663,3767,372,-203,279,-174,340,53,-123,549,-50,0
852,-5106,4631,83,-804,1892,122,-495,1900,113,-400,1774,-319,-990,1608,-464,-787,386,-378,-293,-92,-138,-12,53,-297,-86,-38,-120,-236,-14,0
-9987,-2242,-3534,-4496,-755,1333,-3869,-489,1098,-3253,-586,1249,-2653,-226,1470,-5788,8901,-4735,-604,194,878,51,-205,-16,28,-179,-16,-148,-198,-68,0
-8524,-1393,-1552,-2123,-632,4669,-940,-519,2772,-1323,230,2128,-672,69,1781,-7386,11508,-7014,830,3087,2380,-149,312,329,-24,-242,24,85,-418,-63,0
-5655,995,15,-1161,-1945,5683,-816,94,2512,-457,0,1893,-174,6,1886,-7560,2100,1177,-944,1065,1583,179,-43,284,-20,-412,-44,274,-398,-36,0
-3804,2628,3375,-1383,-412,5208,-768,40,2551,-456,38,1904,-104,-178,1830,-5541,13987,-5438,1424,1086,1757,-117,-388,-64,310,-511,0,130,-532,-68,0
-14787,-2932,-1770,-3188,264,7650,-760,-277,3495,-457,61,2208,53,-64,1826,-4281,2374,702,2572,1419,2755,-141,56,375,-72,-364,19,19,-544,-40,0
-3391,-1559,712,-1007,-543,5170,-338,69,2542,-122,117,2012,49,35,1854,-2696,1810,1081,1523,1645,3247,464,-156,723,76,-362,119,90,-505,-97,0
-2367,2331,6608,-647,331,3860,-32,50,2244,187,-95,1939,121,-37,1938,-4283,9130,-6217,-886,1876,4376,-816,500,782,259,-313,159,-103,-485,-148,0
-5043,3752,4001,-284,256,2276,-44,161,1857,40,-3,1855,170,99,1812,-1824,6036,-1970,-543,267,507,-46,-287,-75,61,-394,-34,174,-292,-37,0
2242,6501,2499,1150,3548,1299,1042,3135,1276,1324,3096,1086,588,1721,1502,-3261,-232,766,523,186,-37,350,106,12,224,58,-14,185,314,-48,0
9405,767,-542,3856,-145,1782,2880,38,1401,2585,10,1303,2046,-61,1404,5367,-12357,-6343,-314,-925,1395,55,236,-8,-186,288,30,54,307,-68,0
11236,3810,-309,3101,143,4982,1869,-218,3129,978,-3,1998,494,73,1681,2144,-4354,2008,-233,-37,223,-209,434,-16,-138,351,-14,24,464,-48,0
8619,3938,1001,3206,-2073,3254,114,867,4281,340,-29,2276,21,44,1806,4899,-11499,-5397,-1415,-590,1642,-30,359,-16,-307,414,-28,-313,461,-2,0
11292,5773,893,621,392,3471,284,10,1798,60,120,1677,39,32,1737,4039,-4281,224,116,-80,330,-201,393,-15,-172,410,-54,-189,574,-1,0
2874,-2801,3765,718,379,4775,582,-294,2667,315,-334,1959,-75,-53,1899,2324,-6792,-4202,233,-404,795,-107,419,-14,-324,462,-28,-245,543,-32,0
3311,1087,107,1273,-373,5353,555,-8,3071,217,-76,2028,19,-35,1813,3649,-530,939,-1389,-1085,3447,-111,62,356,-153,391,34,-156,548,-35,0
11166,5765,493,2715,-644,5114,256,426,4052,152,78,2363,-163,199,1832,523,-2455,-2664,-182,-291,807,-158,424,-24,-209,456,-46,-41,580,-80,0
2049,-1841,1488,109,0,2875,-175,222,1939,-194,224,1852,-236,172,1817,1088,-587,-1431,-132,239,238,-138,416,-55,-129,381,-64,-117,467,-26,0
-5387,-10516,-227,-185,-3478,1182,-296,-2994,1192,-250,-2511,1363,-176,-1624,2016,-1047,-47,978,-59,-25,64,-228,-127,-27,30,-80,-5,-109,-294,-9,0
-5716,2788,2225,-3524,-788,3051,-2795,-514,1741,-2538,-464,1563,-2031,-212,1493,-3366,7949,-5451,696,363,933,-55,-205,-18,231,-335,41,-86,-378,-30,0
-6633,-3961,-487,-2183,68,6143,-1514,-285,3184,-922,-110,1970,-453,-167,1789,-1596,8529,-3898,-3563,1216,2531,1685,170,1421,-128,-59,173,-2,-448,-68,0
-7990,-5652,-2000,-193,-1839,6252,-450,-395,2350,-278,-145,1822,-35,-222,1739,-3595,7690,-5979,1168,2624,2881,143,321,605,189,-256,84,59,-478,-46,0
-2693,-868,6618,-807,-204,3751,4611,16568,8994,-108,-97,1818,32,-90,1808,-4096,9150,-6742,674,91,688,-36,-349,-9,373,-533,-46,-11,-542,-106,0
-3879,821,3899,-840,-121,3560,-214,-8,2174,-223,107,1854,56,58,1868,-4576,12319,-5889,970,489,1453,101,-417,-10,283,-486,-26,97,-456,-64,0
-2056,-456,5248,-143,-437,3603,-268,66,2309,-87,-29,1914,215,-57,1811,-5492,2029,-89,1203,851,1937,135,-183,298,-95,-407,-3,105,-498,-64,0
-3546,536,5791,-609,-209,4085,-11,-275,2278,111,-227,1921,292,-216,1821,-3974,9882,-5494,-4442,1836,-1338,1592,1033,2376,389,-151,308,95,-570,-37,0
-1383,10023,344,-537,3116,1274,-499,2437,1478,-541,2008,1560,-59,1546,1442,1212,-533,544,186,315,24,271,103,-26,37,53,39,92,172,7,0
8999,3732,-2627,3626,1633,2109,2844,1299,1368,2373,1106,1382,1785,937,1522,2685,-1127,1737,-137,-121,405,0,270,-45,-151,321,-8,43,376,-36,0
5089,-901,3447,1162,400,2610,717,272,1852,357,236,1786,297,124,1868,3325,-2388,1828,-426,-857,1876,-194,-121,355,81,273,-21,74,380,-77,0
3534,-941,2408,606,862,4679,557,126,2547,425,127,1980,14,6,1778,3168,-2297,1906,-93,112,194,-298,458,23,-137,493,-21,-68,534,-36,0
3244,1404,-178,348,225,3124,-74,146,1871,-97,118,1797,-203,48,1805,1931,-1057,85,6,-144,441,-141,465,-36,-163,460,-12,9,493,-91,0
-1148,-420,610,2777,-1347,5993,592,50,3174,-200,247,2114,144,-35,1749,2782,-6682,-5611,-1536,-1792,1901,-332,135,286,95,403,-52,82,463,-73,0
6375,3379,-694,894,1299,5295,264,734,2737,35,394,1937,-91,197,1762,2721,-1344,-508,-348,-69,543,-137,397,30,-185,512,-51,-26,545,-41,0
1979,-917,5091,1113,-395,5081,533,148,2609,279,3,1953,102,14,1839,3244,-2110,187,-68,-133,455,-149,508,-65,-9,451,-66,4,604,-66,0
1406,1352,1141,405,441,2808,-231,271,1887,-256,243,1783,-323,91,1815,1552,-418,2737,-151,66,273,1,314,-55,-127,378,5,75,380,-59,0
-1035,-11735,1195,493,-4179,1256,182,-3807,1046,188,-3497,1109,49,-2534,1318,-820,994,621,-700,-16,0,-207,-118,5,-206,-97,-58,-380,-261,-32,0
-5568,-712,2266,-3640,-1232,2691,-2621,-1013,1633,-2269,-946,1441,-1419,-625,1678,-735,1053,625,-511,762,2172,336,275,712,-126,-131,91,-27,-301,-58,0
-6359,-1432,4049,-1124,-923,4120,-778,-464,2326,-468,-345,1856,-170,-220,1769,-3356,2717,1986,302,11,490,71,-350,7,178,-441,-7,-39,-533,-37,0
-5023,-348,3995,-60,-935,4680,-346,-180,2550,-265,-99,1948,53,-8,1813,-2170,2745,2378,215,-142,277,138,-426,-4,155,-461,-48,-4,-557,-1,0
-4345,585,6120,-326,-428,3851,-31,-175,2204,-6,-109,1823,34,36,1763,-5775,4217,131,-168,-31,169,181,-536,-13,149,-515,-32,-35,-597,-42,0
-4817,-1191,5075,-99,-1170,4139,-76,-138,2365,-277,-48,2015,233,-33,1827,-3529,13896,-5605,-672,1048,725,-130,-408,-63,24,-509,-77,154,-629,12,0
-3615,-1948,3975,-518,-1023,4067,-418,-363,2292,-306,-208,1865,82,-162,1813,-2815,863,-1123,-95,243,555,91,-468,-11,199,-578,-49,-5,-585,-52,0
-5707,-5950,-1356,-87,-1728,6149,-635,-561,3119,-54,-303,2044,78,-175,1844,-2126,4143,815,2079,1183,2538,193,48,336,38,-467,25,-25,-470,-72,0
-3387,838,838,-805,-1190,6693,-409,-396,2822,77,-82,1893,197,27,1833,-4758,2301,1518,-974,1279,1230,281,-166,243,98,-422,32,35,-580,-31,0
-4080,-6,6428,-1264,1033,1714,-1082,739,1657,-919,673,1676,132,-344,2182,-899,1867,945,-4,78,252,408,97,-26,261,105,-23,158,146,-42,0
5938,7073,-2840,3400,3314,1748,2420,2506,1176,2031,2210,1266,1598,1780,1418,1283,-12878,-5862,18,-623,642,113,242,-41,-4,245,16,4,401,-42,0
8147,9748,-1929,1203,1157,3208,864,610,1767,670,456,1698,476,375,1804,4259,-3255,1562,-191,-142,428,-9,327,-25,-112,397,-49,-32,472,-41,0
4552,6455,-429,30,568,2905,197,163,1958,-101,159,1813,-16,36,1904,4432,-3936,1303,-50,-95,300,-129,438,6,-49,411,-47,-137,579,-24,0
7437,9472,-2617,641,733,2821,188,207,1823,16,155,1743,-38,29,1811,3270,-2731,1024,-293,-98,502,-88,417,-27,-183,534,-66,-99,499,-19,0
4643,1056,2913,-97,1568,5409,342,499,2690,182,321,1983,-77,210,1824,600,-14402,-7105,409,-2242,2996,-268,-330,706,-108,333,120,146,491,-67,0
6577,2363,4320,1578,1087,4810,51,492,2353,177,249,1834,-66,217,1702,2700,-7842,-5954,145,-2389,3714,-207,-270,895,-93,278,143,17,495,-56,0
1405,8748,1072,5840,213,6690,1211,649,4083,204,101,2181,-177,-20,1745,1893,-14741,-7398,1931,-3375,2783,-51,-613,670,-51,335,91,95,512,-64,0
3547,9736,184,658,656,3756,-269,-3,1888,-111,4,1868,-315,-78,1845,2782,-9451,-4555,-926,-599,1590,-47,447,-8,-114,571,-25,-28,482,-45,0
5654,-7554,4214,2153,-2677,1228,1770,-2166,1345,1558,-2033,1383,852,-1626,1547,351,-403,999,-659,-46,-117,-374,-27,-21,-129,-69,-7,0,-147,-2,0
-4155,-4148,1910,-2732,-3622,2229,-2110,-2942,1420,-1970,-2570,1210,-1267,-1837,1521,-3329,6716,-1347,152,262,469,-108,-218,-25,98,-290,-10,-17,-396,-23,0
-5728,-5595,3105,207,-2889,4499,-616,-1041,2292,-744,-979,1985,-244,-634,1707,-1539,6830,-4024,200,200,510,19,-379,-17,93,-408,-25,-36,-491,-74,0
-4657,-1679,2038,-32,-1035,4391,-558,-307,2360,-448,-235,1928,-41,-54,1868,-2082,3311,339,140,30,460,113,-425,-14,109,-505,-18,87,-570,-21,0
-4784,-10520,-3633,-154,-782,2794,197,-376,1835,12,-296,1702,122,-98,1809,-2104,4351,2065,270,-40,430,94,-395,0,211,-446,-15,73,-548,-33,0
-2907,-9248,-1344,-170,-276,2476,-149,-204,1885,-39,-83,1760,-67,62,1819,-4517,14963,-7034,366,984,1556,-51,-416,-28,122,-539,-60,-13,-658,-41,0
-5084,-1851,3053,620,-1155,4615,70,-183,2384,-140,-219,2029,151,94,1786,-2290,5485,60,1057,1247,1773,176,-61,341,-64,-351,37,-114,-459,-88,0
-2322,-2651,6913,-443,-808,3236,4,-343,2071,-35,-211,1816,161,-40,1783,-3375,2973,1473,325,723,1344,96,-266,225,-73,-466,-34,-81,-536,-57,0
-5023,-2598,6014,-289,-572,3802,120,-199,2365,19,-104,1951,278,20,1862,-377,5007,-2519,93,336,523,104,-462,-27,54,-511,-29,32,-425,-55,0
-9505,7580,129,-2567,2688,1208,-1972,2189,1290,-1724,1862,1532,-222,1147,1844,-290,1098,1155,363,-38,-88,352,7,-40,215,23,-34,145,143,-36,0
3624,4186,-387,2327,2594,2060,1620,2243,1544,1476,1907,1460,1296,1624,1580,1427,-10476,-2882,179,-1402,797,103,211,-20,13,248,-13,155,299,-73,0
4123,2888,3342,782,1663,4314,300,850,2263,441,686,1817,42,422,1724,2772,-14404,-6791,-335,-727,1175,68,321,-32,-25,416,-30,54,359,-44,0
2331,1993,1087,1,1049,5424,32,463,2846,57,246,2048,-37,-38,1945,1007,-4714,-3485,215,-132,326,-155,438,21,-138,465,-43,-59,466,-17,0
1654,2904,5530,364,780,3656,-101,67,2172,15,205,1953,-114,-42,1783,5249,-2557,162,118,55,147,-94,415,-39,-71,399,-46,-90,474,-12,0
2866,10264,-1775,-1453,2004,6569,600,878,3076,-146,242,2003,25,24,1838,470,-12057,-4895,-1112,-640,1546,55,410,-41,-121,496,-31,2638,1397,-9658,0
2017,11412,-393,420,1073,5802,303,620,3221,179,274,2087,-71,61,1754,4485,-4133,1487,-289,15,418,-74,466,0,-235,500,72,33,572,-47,0
657,12457,582,1032,1173,3871,-301,117,1835,-353,43,1762,-320,-74,1790,5324,-3862,1235,-24,54,290,-84,478,-36,-63,475,-35,5,525,-30,0
2850,2051,703,-738,1039,6098,313,388,2887,177,121,1999,-8,-9,1824,2258,363,770,-412,-33,743,-75,320,10,62,358,-69,-205,516,9,0
6634,-5887,3278,2711,-1959,1320,2350,-1685,1357,1916,-1309,1496,1120,-1571,1459,2121,-1372,1127,-354,34,-30,-238,-31,16,-149,-25,-17,-10,-136,-1,0
-5802,-3879,900,-1542,-3115,1755,-1251,-2566,1466,-807,-2223,1515,-798,-1788,1543,-1932,3574,-1231,430,242,538,-35,-151,16,-28,-216,-16,-30,-303,-21,0
-4831,-3780,1833,-372,-1142,2645,-185,-735,1812,92,-561,1696,-2,-379,1714,-2578,13890,-4667,1050,704,1360,-166,-250,-25,103,-396,-23,-111,-370,-54,0
2,-10347,-609,-1346,-1945,6862,-500,-1109,3605,-99,-482,2012,-1,-145,1813,-1890,7808,-5742,-261,506,607,153,-509,-1,123,-483,-46,-7,-427,-31,0
50,-11085,190,-1183,-1763,6348,77,-347,3255,-50,-185,2163,60,73,1809,-1663,7668,-4425,140,235,635,103,-466,-6,80,-522,-21,24,-534,0,0
-2996,-3320,3833,703,-263,4293,167,-238,2383,36,-208,1909,230,151,1736,-3980,2658,1577,1524,1245,2584,267,-175,401,-29,-423,48,72,-510,-53,0
-2951,-3100,2856,1587,-500,5590,11,-546,2750,5,-228,1960,148,51,1789,-3198,6099,1696,1575,946,2317,12,-24,275,-104,-309,-16,-87,-497,-75,0
-4338,-3813,3106,-882,-1062,4156,229,-131,2235,-49,-131,1879,52,-12,1723,727,4876,-4744,2561,1392,3893,166,158,605,36,-413,23,-32,-510,-100,0
2548,-10194,872,-1952,-2007,6713,-465,-735,3437,-134,-58,2089,187,250,1846,-1542,3159,2206,302,-177,380,-59,-502,-61,-57,-431,-80,-42,-530,-49,0
-5553,155,5292,-2688,308,1575,-1608,-64,1678,-1965,80,1454,-1123,238,1628,-1649,-718,1000,-347,-234,334,186,80,24,572,126,-689,121,206,-52,0
628,6768,646,466,5399,3564,604,4421,1527,226,3595,1234,244,2656,1338,1581,-4168,-1357,-591,151,541,62,181,4,49,269,-31,147,299,-41,0
-576,13628,-957,52,1622,2964,129,1045,1829,-127,668,1681,-64,563,1678,955,-3031,2447,-224,207,196,-36,376,-9,-68,413,-7,104,396,-35,0
2010,3558,3366,-437,862,4202,-368,479,2394,-28,480,1878,-200,-37,1711,1120,-5304,257,-565,70,439,-58,412,-2,-133,534,-8,37,477,-22,0
2387,3917,4134,-394,776,4366,-116,179,2428,61,130,1956,-125,-128,1835,-120,-12896,-5352,4992,-4454,579,-288,-1278,1414,48,249,153,69,493,-64,0
3604,3858,3884,203,1048,5104,-323,142,2434,-138,40,1878,24,60,1785,1088,-15171,-7015,-1091,-309,1673,-147,524,42,-10,494,-34,183,488,-80,0
2700,1588,2180,-76,792,5251,245,512,3015,-21,187,2086,-95,-50,1789,554,-12310,-5400,-843,-157,1416,43,401,13,7,574,-63,53,482,-61,0
-1409,5788,158,-78,640,3356,-168,3,1851,-277,-157,1756,-233,-200,1768,262,-10442,-4331,-1080,-149,1533,35,400,1,9,489,-35,102,548,-35,0
-3115,11345,755,948,2332,4656,-199,582,4118,-344,128,2288,-306,-122,1772,1828,-8346,-3978,-606,-36,1398,11,333,8,46,396,-69,48,483,-37,0
8871,-4698,2773,3682,-1053,1289,3223,-1076,1163,2989,-1223,1156,2000,-669,1527,-1054,114,1330,-562,-3,-1,-152,-31,33,-283,-24,-39,-226,-80,-41,0
-3548,-5913,2184,1249,-3367,3590,-414,-3663,1555,-178,-2987,1283,-13,-2246,1493,355,11908,-5219,949,309,1101,-150,-177,10,14,-297,-22,-27,-400,18,0
390,-4871,5941,-144,-2247,4003,121,-1182,2150,156,-880,1780,126,-647,1775,-1092,5769,490,1275,1485,2456,380,87,519,-3,-264,100,-61,-528,-30,0
-2062,-5077,3704,-84,-1299,4272,-76,-533,2291,52,-270,1919,-13,-113,1818,-4399,2098,749,2961,871,2865,169,-26,458,-31,-355,52,-33,-487,-56,0
4597,-12859,129,-1776,-3769,5716,99,-539,3342,-31,-333,2200,-6,59,1806,-4308,2755,447,2462,764,2955,36,-1,368,-128,-376,-12,21,-530,-33,0
159,-2154,6350,516,-532,3664,259,-159,2156,223,-64,1822,95,-8,1790,-4460,3692,-1711,1486,489,2002,-21,-133,287,-283,-376,-45,29,-489,-24,0
-3139,-3125,4103,635,-268,4485,-120,-174,2538,-247,-99,1922,-40,63,1871,-557,9907,-4648,141,279,979,24,-448,-2,53,-549,-30,-19,-543,-40,0
3708,-13302,-142,958,-1702,5157,-378,-1046,3692,243,-37,2143,84,101,1803,-368,4047,1194,1848,353,2930,44,128,356,90,-426,60,-120,-478,-58,0
748,-4389,-732,1441,-67,5709,-126,-953,2995,277,-47,2007,346,155,1790,-608,4998,-3326,246,189,1015,57,-435,-49,-87,-511,-69,-142,-459,-54,0
-5377,-4591,-223,-3763,188,1943,-2536,70,1495,-2735,353,1326,-1519,589,1533,-873,433,1342,193,10,127,207,-37,17,109,24,23,81,-32,-32,0
1306,7115,2741,-400,3810,1786,-209,2957,1361,-270,2394,1518,-164,1945,1724,2982,-2601,2211,46,-253,345,-38,255,1,9,265,4,49,363,-50,0
-611,4802,5509,-491,2099,3525,-337,1084,2281,-32,1064,1878,-80,566,1693,20,-13972,-5801,-1469,-212,1608,71,286,33,47,474,-23,1,569,-13,0
225,2740,5226,501,2687,4297,-315,508,2281,-76,387,1848,-93,129,1893,5110,-4038,1073,-1207,-1124,2773,22,-1,344,88,304,59,208,419,-76,0
1600,4097,3656,-54,1154,4363,-272,286,2313,-137,131,1848,-162,-78,1806,3776,-4117,129,-1532,-552,2324,-70,111,321,142,377,3,133,436,-67,0
-3741,5080,-63,1324,2246,6288,-426,846,3319,-303,63,1991,-157,-74,1874,3992,-4219,-2382,21,167,216,-113,560,-14,-38,497,-44,169,548,-55,0
-1999,1853,328,1023,1259,6090,-155,640,3740,-61,178,2194,-59,-194,1834,2667,-4996,1065,-209,237,367,-68,566,-18,62,459,-58,196,542,-34,0
2936,5738,3671,-120,499,5060,-162,185,2504,-25,-43,1901,-228,-185,1870,-181,-11129,-5661,1583,-1797,2936,-813,342,1071,150,235,125,165,468,-66,0
-4666,5817,999,-283,412,3759,-199,-177,1922,-207,-150,1827,-201,-240,1829,1995,-1648,2092,-42,136,186,52,420,-27,67,394,-19,225,393,-73,0
10044,4595,1154,4439,-67,1355,3281,115,1285,3107,62,1252,1773,-174,1528,2392,-1004,-1285,-1247,-26,-135,-140,17,123,-306,42,-60,-79,-89,-2,0
511,-2876,1441,918,-2420,1445,504,-2556,1386,342,-2498,1395,309,-2343,1511,-1331,8012,-4752,270,400,829,-152,-168,-55,-58,-277,-9,-303,-337,-107,0
-33,-3221,3336,555,-1095,3464,338,-896,2168,238,-810,1820,284,-379,1676,-1756,5083,-259,12,220,374,-165,-319,-58,-7,-399,-5,-138,-310,-21,0
-1678,-88,953,486,-109,5711,102,-831,2674,269,-234,1945,74,-26,1776,-3137,6906,55,-2,136,332,50,-574,21,-182,-442,0,-156,-512,-44,0
1295,-3723,-567,1362,-555,6690,462,-296,2763,223,71,1945,127,165,1755,-3469,4421,1517,81,-23,337,16,-452,8,6,-510,-18,-139,-586,8,0
4313,-5337,-1694,1292,-434,4874,282,-307,2729,188,-114,2015,152,109,1797,-656,10065,-4317,-657,968,812,-86,-454,-52,131,-543,12,75,-521,-6,0
2636,-4867,-1465,2466,-129,5853,203,-932,2967,262,-276,2091,86,15,1899,-284,1486,-2648,1158,396,4257,75,311,625,-63,-316,74,-55,-496,-64,0
-671,-3569,2740,94,-631,4632,44,-444,2446,53,-230,1928,143,114,1770,1266,14568,-7057,1389,-100,1758,-172,-356,-32,-72,-485,-98,-236,-496,-67,0
4042,-3863,166,165,-951,6116,388,-500,3418,173,52,2116,122,221,1856,-2306,-537,256,-224,405,523,9,-484,-14,-80,-609,-90,-63,-515,-27,0
-4195,-7711,-14,-2721,-948,1482,-2333,-736,1484,-1882,-657,1631,-1982,104,1465,2316,-277,1458,136,-28,97,320,-25,-51,239,-2,3,228,52,-35,0
-8152,8313,-3891,-1979,3726,2185,-1376,2890,1360,-1213,2420,1459,-927,1769,1675,1168,-1468,2440,-197,-82,355,-10,204,40,22,291,-29,172,376,5,0
-464,2051,58,-795,1417,2802,-416,936,1727,-407,583,1696,-275,518,1746,973,-3646,-3022,-145,-367,709,98,327,-30,-4,415,-19,95,379,-69,0
-9326,7040,357,-41,2506,5373,-458,1630,3618,-371,109,2097,-178,59,1834,3362,-3448,-675,211,-27,273,-171,642,27,71,438,-46,189,444,-26,0
649,573,204,-895,-2,6142,-351,509,3100,-189,149,2079,-54,-39,1778,2054,-4239,1176,-31,161,270,36,532,-47,63,458,-42,244,470,-53,0
-9782,8626,-139,-410,194,4470,86,320,1970,-24,-15,1739,27,-49,1772,3148,-3421,1248,-1935,-782,2968,-101,15,348,121,486,-14,125,493,-77,0
-1322,886,-423,-314,369,3279,-178,-67,1872,-157,-212,1747,-2,-235,1759,3227,-3382,434,-2345,-530,2752,76,111,277,210,426,-36,173,535,-49,0
-1250,3025,3179,-788,588,4348,-548,-70,2372,-366,-72,1917,-168,-482,1801,1753,-13735,-5915,211,-1006,1109,208,412,-60,52,504,-53,46,509,-44,0
-876,4845,5390,-184,97,2339,-170,-127,1880,-189,-159,1834,18,-180,1771,635,1335,780,-136,212,135,104,263,-27,101,252,-64,-42,409,8,0
10693,3744,401,4257,1009,1238,3469,789,1106,3177,641,1104,2470,501,1351,1379,1677,1268,-890,314,-131,-105,-10,76,-208,48,-2,-115,-47,-51,0
9631,-8423,-2810,2088,-3717,2488,1530,-2324,1385,1355,-2086,1377,1076,-1673,1479,-2325,7508,1002,57,184,248,-52,-299,0,-117,-263,16,-113,-255,-9,0
1829,-3378,4853,767,-1503,3209,537,-768,2058,352,-711,1728,207,-319,1830,-4029,5959,223,1384,1191,2080,31,10,260,-163,-306,60,-96,-454,40,0
12711,-9717,-3271,4266,125,6979,1035,-638,3211,571,-58,1965,236,-23,1726,-3813,4979,788,7,-105,323,16,-561,-3,-64,-473,-39,-205,-526,-44,0
4994,-2410,910,419,-1805,6762,494,-569,3458,189,-220,2118,70,-15,1843,-1335,8072,-4676,400,1469,3393,-244,432,702,-63,-292,134,-92,-431,-39,0
12885,-9067,-2300,748,-595,3547,253,-110,1906,218,110,1812,106,123,1867,-3150,2054,2924,1303,784,2894,149,-25,421,-98,-453,8,-161,-444,-46,0
886,-3900,3348,771,-671,4910,321,-288,2592,232,-94,1966,107,189,1836,-2507,3805,1561,612,942,2721,273,0,516,-69,-379,98,-163,-414,-81,0
1537,-2244,1370,-704,-2387,5260,373,-862,3502,210,-261,2147,67,155,1731,3917,15128,-7372,152,1047,931,-283,-340,-46,-142,-499,-38,-268,-394,-66,0
4739,-2986,-639,303,-1449,3908,95,216,1999,83,339,1822,20,408,1774,4462,8553,-5209,-493,1823,440,-141,-351,-34,-170,-375,-43,-188,-489,1,0
-2232,-3357,3519,-2411,-1742,1455,-2382,-1623,1305,-2082,-1396,1282,-1749,-876,1612,45,-566,1284,129,-125,70,132,-33,35,277,-86,-42,325,18,-16,0
-5002,6261,-1716,-2735,2480,1522,-2272,2196,1281,-1980,1903,1307,-1636,1491,1466,3931,-5610,3624,-145,-65,210,82,201,6,89,244,-13,136,306,-3,0
-8168,7062,-2132,28367,-5124,-17135,-1088,914,2188,-835,721,1738,-501,503,1666,2810,-4337,852,67,80,137,-1,467,54,66,356,20,228,377,-16,0
2247,4809,1454,-1333,-216,6132,-258,1092,2791,-78,633,1995,29,103,1797,-2598,-13026,-5848,-151,-553,643,144,412,-39,109,492,-56,254,435,-60,0
-8527,2158,772,-501,420,3630,-68,68,1847,-16,-88,1707,8,-56,1730,3133,-3580,557,-149,79,279,51,445,6,68,456,-38,192,523,1,0
-12370,6015,-32,-559,836,3569,-202,10,1853,-136,-74,1706,-25,-61,1713,811,302,-339,18,-229,450,8,540,33,97,529,-23,69,523,-46,0
-7879,3602,67,-407,953,3780,-73,120,1847,-47,-10,1724,116,-11,1730,1917,-4647,426,-400,-23,607,-14,528,4,104,488,-62,221,489,-37,0
-2006,5680,4823,-626,1935,4642,-179,248,2333,33,85,1785,78,-203,1794,2976,-6587,487,224,-201,322,99,539,-15,176,498,-57,176,464,-47,0
-127,3377,1794,-291,167,2740,-47,-308,1843,25,-416,1761,95,-398,1787,322,-4203,-1016,40,-374,635,167,408,-34,154,497,-45,204,373,-52,0
4023,4342,1025,153,1368,2358,219,707,1820,201,615,1771,232,442,1712,-3021,-4061,2123,-189,-420,6,-20,0,-27,81,-8,-43,151,53,-5,0
8532,4356,1244,4482,1352,840,3995,1037,853,3649,957,932,2327,638,1335,1001,-1311,-1404,-1044,602,-157,-155,75,32,-284,80,-33,-313,43,-52,0
-2536,-3659,2436,1671,-1130,1753,1511,-1140,1592,1315,-882,1548,1041,-701,1561,3667,16092,-8313,187,758,162,-161,-171,5,-90,-213,8,-294,-172,-57,0
2117,770,-215,682,-97,3553,406,-234,1856,229,-79,1663,196,-179,1759,379,5295,1887,338,1362,987,95,-104,144,-274,-247,-52,-284,-261,-62,0
1709,-1810,7913,797,-351,3613,280,-197,2122,173,-80,1859,30,-38,1732,2614,13617,-5978,-2625,4563,493,663,717,1271,104,-324,251,-231,-355,-77,0
1275,-3302,1847,1681,1535,6489,533,-521,2918,223,-231,1983,49,-39,1831,-831,4994,-2833,-126,414,675,-111,-491,-20,-84,-483,-10,-131,-482,-21,0
2415,-2224,6228,865,-929,4318,153,69,2291,132,-188,1953,31,-6,1850,2319,9974,-5140,-126,666,534,-141,-429,-34,-61,-504,-38,-197,-417,-72,0
2460,-4876,3642,652,-739,4573,143,-33,2389,116,-188,1905,-29,23,1831,-2442,5547,921,-114,16,224,-106,-534,-13,-149,-461,-21,-169,-463,-63,0
1796,-2746,3831,224,14,2433,50,254,1856,-6,355,1757,-133,359,1750,-465,5333,-995,-54,172,349,-159,-433,-10,-181,-533,-71,-307,-414,-67,0
-795,-1832,1909,684,-315,6370,726,-596,3362,45,222,2109,-120,340,1805,3348,12508,-6602,342,653,1520,-136,-464,15,-169,-492,-40,-163,-454,12,0
-3508,-8733,2395,-1005,-2403,1605,-882,-2062,1684,-957,-2005,1518,-883,-1194,1485,1127,-685,1010,24,-107,106,247,-32,19,281,-75,-4,-84,212,20,0
-8218,1606,3071,-3997,1285,1009,-3493,1197,1093,-3162,1120,1257,-2302,846,1599,48,-6969,-3571,-68,-187,829,94,98,1,131,158,-29,307,192,-45,0
-9293,-13117,4586,-1801,1184,3930,-1231,491,2167,-1034,587,1774,-678,337,1666,-591,-9252,-5539,-195,-235,502,197,142,-40,123,391,-27,218,278,-38,0
-11301,802,586,-766,-560,4052,-333,-81,2026,-236,-85,1739,-76,-75,1755,930,-4297,2393,-79,165,248,97,411,-22,139,417,-30,261,354,-60,0
-4554,-3120,1869,-978,739,6627,-528,39,2911,1,-172,1943,-88,-29,1796,-2987,-15103,-7768,83,-797,773,58,509,-13,95,481,-15,284,369,-89,0
2726,-311,653,-300,2330,6541,-438,756,3026,-29,544,1906,92,-16,1763,2182,-6395,989,-113,-1297,944,-55,111,60,155,396,-10,349,408,-78,0
-8218,-3021,966,-3553,6086,6137,-445,38,3771,30,-51,2149,167,-115,1823,3564,-5169,964,77,199,199,112,520,-22,166,497,-43,309,492,-57,0
-8219,-1005,688,-1315,104,6979,-371,386,3160,-111,399,2108,54,1,1840,526,-4289,1707,-47,185,304,89,549,-24,116,472,-10,337,512,-28,0
-3547,2284,3544,-878,759,4980,-257,-432,2518,-151,-299,1908,68,-334,1731,-25,-2821,-1164,25,-112,225,201,525,-27,210,424,-67,203,463,-24,0
-18,9089,459,1650,3711,1460,1477,2797,1256,1344,2465,1303,963,1638,1509,-617,-2118,1098,-733,277,-146,-128,79,74,-212,99,-22,-51,-416,72,0
10771,-2971,-3003,4019,-952,1444,3161,-630,1217,2841,-625,1209,2339,-548,1388,2960,11595,-5205,626,532,1108,-181,-84,-2,-199,-213,-45,-261,-252,-57,0
4122,-3981,3736,2450,-582,4790,1645,-624,2419,1243,-502,1839,749,-356,1687,1269,6741,-5406,-165,592,451,-175,-306,2,-150,-355,13,9,-486,51,0
1975,-1407,632,1281,2433,6165,951,82,2783,539,181,2002,215,126,1911,-1511,5291,1040,1588,364,1867,-142,-23,186,-340,-289,-36,-206,-461,-57,0
11938,941,-4617,2566,3124,6769,1172,91,3080,563,133,2069,287,-13,1861,-3097,1731,-19,-71,216,493,-85,-438,-4,-54,-557,-33,-168,-503,-43,0
3961,-1797,375,1586,515,6005,650,-211,2905,273,-98,2016,35,65,1848,-3211,5096,1374,-521,1923,870,-13,-235,177,-322,-337,-75,-231,-496,-53,0
4910,-2890,2958,1458,1136,5416,568,96,2666,367,115,1997,125,85,1764,-58,7433,-5598,180,253,661,-105,-506,11,-181,-504,-53,-346,-433,-19,0
3696,-3504,2087,813,362,5646,739,-415,2648,347,-134,1956,8,93,1795,198,5946,-1660,2381,524,2494,-28,211,280,-256,-349,-5,-332,-417,-75,0
4702,-4071,2294,856,868,5574,702,-180,2813,240,142,2047,51,253,1827,4199,8105,-4600,-48,1418,519,-148,-265,-16,-238,-331,-42,-221,-266,-47,0
-768,-4427,2737,-1460,-3320,1169,-1239,-2877,1247,-1198,-2641,1313,-1048,-1683,1427,83,255,-265,1119,-439,-56,242,-179,0,122,-10,-10,96,57,-36,0
-9777,827,-2658,-3803,852,1478,-2881,444,1309,-2518,318,1463,-2080,364,1577,2413,-2576,1700,-75,-14,180,114,96,3,121,199,17,256,189,-40,0
-13826,-1673,-2137,-1754,517,2440,-918,176,1749,-662,60,1672,-547,51,1741,1074,-3679,910,89,110,103,125,293,-11,147,328,-23,449,308,-44,0
-6636,-431,-245,-117,-2622,6001,-1088,447,2767,-368,-21,2024,-99,-31,1907,-3414,-12970,-5354,83,-928,493,207,225,-46,137,447,-45,212,456,-39,0
-13719,-3240,-355,-1144,162,3550,-236,100,1883,-100,38,1768,230,-16,1786,1110,-3776,2539,29,249,124,137,387,-9,190,378,-50,150,527,-49,0
-2761,1823,4363,-1165,350,3922,-331,-5,2326,-223,-35,1917,-20,-134,1866,787,-5654,1301,-94,32,233,177,490,-37,207,362,-27,362,493,-47,0
-6493,-2024,1426,-761,161,6283,-744,374,3225,-278,161,2134,84,-6,1883,821,-7270,799,-93,-79,209,151,482,-15,238,397,-24,288,514,-45,0
-5677,401,-642,-1064,-1426,5452,-602,-266,2700,-154,-323,1934,-5,-239,1819,-1223,-9904,-5042,92,-848,436,58,587,13,199,456,-29,335,480,-39,0
-7399,-1585,848,-1195,662,5623,-764,18,3058,-247,-100,2069,81,-201,1819,-2354,-13593,-8183,-87,-137,538,157,352,-21,248,340,-61,415,322,-90,0
-3954,2953,2608,-294,-226,2561,258,-446,1886,357,-476,1757,316,-344,1806,-3624,-3286,1618,-198,208,50,182,304,-45,180,307,-42,280,81,-67,0
-902,6008,3368,582,3812,1010,717,3482,1048,703,3234,1108,487,2267,1401,1431,-2391,1360,-303,158,152,-258,177,9,-162,96,7,-293,20,-92,0
9878,3590,-2562,3979,208,1771,2914,167,1281,2541,271,1407,1879,241,1517,4813,12474,-6196,991,683,1241,-254,-132,-22,-187,-181,9,-270,-115,-52,0
10609,4583,-58,3758,-1092,5738,2120,-291,3669,950,34,2086,433,113,1772,3747,13505,-9594,126,356,171,-238,-319,-9,-212,-288,-36,-109,-464,-41,0
12663,4250,-347,1086,-79,3303,321,-36,1933,41,34,1765,79,-30,1839,3375,8627,-5654,141,310,771,-180,-406,-17,-185,-377,-44,-157,-386,-58,0
249,-140,2091,269,-84,2002,110,-37,1836,32,66,1834,-61,-88,1788,-1555,3526,783,19,-155,332,-188,-454,13,-193,-390,-58,-144,-431,-5,0
1204,89,-720,369,1614,6264,326,306,3124,171,148,2113,-152,8,1808,-2187,6033,-373,-138,-4,218,-204,-498,7,-228,-443,-40,-194,-427,-54,0
5119,-2077,4510,626,366,4519,36,197,2391,139,87,1928,-191,158,1779,3447,11723,-6680,188,504,970,-261,-359,-51,-232,-506,-61,-271,-407,-45,0
8637,3841,571,2494,-1466,5996,810,-369,3249,250,-202,2094,-7,-45,1810,4240,13046,-7786,500,273,1137,-294,-320,-71,-215,-470,-51,-304,-381,-80,0
5212,-2572,5279,2036,-1124,4798,262,124,2393,-59,130,1846,-154,127,1896,-1769,4641,786,211,26,419,-133,-530,22,-198,-428,-55,-279,-425,-74,0
6894,3196,932,1955,-1048,3793,158,-17,1844,82,-35,1752,8,-65,1772,-2307,-2183,1825,114,84,88,-194,-361,-2,-133,-138,-59,-165,-473,61,0
-6052,-11764,629,-1158,-3922,1113,-1222,-3513,1007,-1498,22298,25031,-781,-2446,1409,-66,-309,-844,425,-247,267,121,-176,73,217,-171,-15,161,-13,-26,0
-8073,-3646,-1486,-3475,-161,2195,-2578,-108,1551,-2027,-121,1622,-1636,-46,1742,-1038,-7311,-2330,-197,-40,305,125,223,-17,195,160,-51,235,175,-43,0
-12668,-7280,-2279,-2461,-1896,5728,-1627,-649,2930,-768,-572,1925,-411,-380,1644,-7368,-14654,-8336,-731,-227,965,298,127,-46,246,319,-27,288,255,-42,0
-4170,924,5535,-284,-202,2323,-39,-252,1879,131,-256,1803,206,-103,1755,-6731,-11351,-5304,-551,-432,789,276,222,-49,217,408,-10,225,446,-26,0
-7850,-7916,1109,-644,-227,3070,57,-135,1883,208,-110,1807,197,23,1847,2288,-7189,1106,228,-2450,1220,65,73,224,492,134,-84,215,339,-53,0
-3792,1500,2690,-895,139,2893,-172,-131,1948,-228,-131,1826,-47,-95,1799,122,-3912,2290,-32,381,149,293,388,-40,240,372,-54,373,286,-47,0
-5276,1975,3342,-2010,658,4640,-192,-92,2397,-254,113,1914,118,-8,1860,1653,-4247,1443,-63,-46,269,163,417,-17,224,367,-25,339,515,7,0
-2318,-3222,5132,-1602,-497,3436,-49,-596,2068,-201,-375,1841,4,-334,1760,1257,-3724,-154,36,-385,363,165,504,22,230,472,-33,334,478,-46,0
-6786,-1217,2232,-374,-393,2439,25,-405,1899,131,-350,1776,173,-217,1788,-2614,-8790,-5426,-84,-523,610,252,396,-13,239,445,-37,354,491,0,0
-7483,-4606,847,-739,-87,3163,-10,-157,1953,140,-172,1788,166,-154,1774,-359,-602,2140,94,319,88,217,314,-41,212,269,-59,133,268,-22,0
-5942,8509,3185,-1004,3059,1282,-818,2702,1346,-694,2232,1441,-444,1431,1544,57,-957,1104,-433,170,51,-326,172,-15,-244,143,-2,-293,52,-56,0
6998,-552,1681,6200,1830,2109,3211,1996,1451,3141,1538,1095,2112,1225,1405,4333,10351,-5455,561,388,842,-289,77,-24,-179,-242,-11,-220,-196,-15,0
3164,330,-222,1633,1624,5346,1524,555,2517,1128,380,1855,613,204,1782,6774,12807,-7219,584,445,833,-341,-110,-40,-241,-367,-40,-279,-437,12,0
-7233,-14585,-28982,1249,923,3366,531,522,2170,398,447,1898,255,267,1830,6888,11545,-5919,816,647,1409,-314,-267,-17,-170,-481,17,-260,-390,-12,0
10423,10712,-1181,2178,2827,4305,830,1006,3434,-81,663,2080,-5,284,1772,3903,9036,-5682,1114,1192,3057,262,392,586,-118,-552,113,-248,-426,-38,0
8432,5170,3447,490,1854,4091,735,506,2428,229,373,1852,84,219,1800,6362,10610,-6059,212,618,1107,-282,-246,-55,-267,-438,-62,-329,-274,-63,0
4827,-371,3816,1706,-12,4869,382,-3,2556,194,28,1984,-95,-9,1887,6861,8402,-5798,763,286,1668,-340,-378,10,-353,-383,-61,-376,-329,-63,0
3722,-222,3246,429,443,2575,-197,310,1873,-455,347,1794,-249,225,1768,5483,5388,-2186,320,1179,245,-162,-163,-25,-191,-87,-48,-112,-223,118,0
2075,-5153,2374,800,-3796,1084,681,-3441,1175,702,-2910,1296,462,-2185,1411,-957,820,1343,265,-311,34,185,-162,17,136,-86,10,326,0,-3,0
-3448,-3973,3317,-4657,-1815,1776,-3095,-1607,1404,-2625,-1384,1348,-1792,-968,1593,-2175,-4437,1731,32,-171,159,205,213,3,188,219,-7,269,111,-32,0
-5483,-46,3753,-839,-494,2122,-566,-507,1757,-364,-427,1678,-238,-252,1678,-7319,-11525,-7018,-429,-76,823,325,53,-62,273,297,-43,328,227,-30,0
-5042,-218,3586,-125,-185,2413,-170,-137,1923,103,-104,1839,76,-70,1839,-1210,-5808,-2130,-154,-392,619,195,328,0,269,342,-27,275,414,-23,0
-4331,-1449,3773,-2025,-557,4440,-236,-257,2339,-324,39,1900,101,5,1881,117,-2492,-890,-281,-31,553,147,431,12,163,444,-44,401,383,-48,0
-5918,-7882,1235,-262,-941,5378,-896,-406,3424,-50,-276,2070,26,-16,1800,-1912,-3603,-4033,-2056,352,4185,138,-696,519,128,356,121,285,330,-64,0
-3820,-648,1280,-982,-800,5528,-589,-175,2588,-242,16,1885,156,8,1859,-8066,-11559,-6742,-358,-503,743,360,326,-45,245,440,10,358,300,-72,0
-5000,-370,3440,-356,-744,5470,-120,-414,2709,88,-226,1958,278,-181,1791,-7694,-12505,-6548,-134,-492,1014,360,323,-50,289,442,-29,308,343,-65,0
-3171,-8565,1135,-123,-513,3054,421,-215,1897,438,-130,1813,473,-85,1832,-1124,-4246,-1888,-61,-234,561,273,354,-26,254,489,-22,355,443,-27,0
-4255,-2717,4,-1442,-342,2933,-135,-80,1893,-31,-31,1811,20,88,1813,-162,-486,2755,-110,-545,-155,108,-19,-62,92,-17,-50,382,319,150,0
-4870,8963,-957,-1576,4106,1259,-1025,3677,1013,-836,3358,1009,-618,2169,1734,173,-2325,2253,6,80,180,-136,88,47,-214,209,-48,-346,120,-46,0
5178,1210,-654,2528,2132,3536,2363,2125,2372,2092,1603,1527,1258,1137,1567,3315,8181,1183,-14,66,178,-246,-274,-33,-266,-133,-24,-374,-208,-81,0
4074,4967,-786,82,1943,6305,773,990,2865,552,506,1908,379,291,1809,999,7688,1107,2028,-264,2103,37,108,349,-278,-105,56,-302,-389,-24,0
9502,13572,-3792,321,6095,4617,1348,1357,3108,255,538,2050,-57,210,1796,839,5586,1438,-32,-43,216,-279,-456,-2,-271,-379,-31,-474,-297,-44,0
4868,5069,851,475,589,2578,227,249,1906,-18,130,1859,52,7,1881,5236,6964,-4034,865,-431,1891,-266,-298,36,-284,-416,-27,-289,-396,-33,0
2645,2197,4416,22,341,2424,95,231,1865,-28,180,1774,-149,16,1637,7599,7890,-4604,58,1485,881,-220,-374,-31,-305,-509,-56,-126,-489,-5,0
6899,14095,-2353,3063,2720,4152,-362,933,3399,636,709,2289,-234,328,1693,1523,6550,1903,757,1553,1040,140,-583,298,-394,-96,-88,-259,-447,-44,0
3868,12985,590,5124,1755,4303,1968,673,3732,156,423,2156,-9,192,1759,1218,3386,2230,652,616,487,14,-157,116,-138,-148,-56,-295,-144,-76,0
3529,-1172,2466,963,1190,5472,845,276,2862,294,116,2131,38,-100,1843,4042,5563,-5121,157,1013,870,-187,-262,-8,-245,-346,-38,-340,-430,1,0
7030,1924,1607,2049,-1676,1863,1643,-1359,1659,1405,-1063,1666,785,-876,1636,876,-285,150,297,-168,-60,256,-164,-29,81,-42,24,292,-76,-19,0
-5871,-5611,2336,-2438,-3547,1314,-1608,-2684,1262,-1642,-2473,1405,-1231,-1942,1616,-4913,-5524,-3331,-198,-555,822,322,-154,-98,225,183,-14,225,288,-43,0
-5154,-13011,-168,-2042,-1599,2359,-170,-961,1838,-372,-744,1593,-297,-364,1661,-946,-3041,2663,-68,163,242,233,325,-24,256,136,-47,204,333,-17,0
-2045,-950,4771,-55,-494,2217,-23,-343,1857,111,-203,1741,-22,-109,1816,-5755,-9729,-5596,-279,-466,907,284,207,-47,314,347,-42,538,358,-28,0
-3125,285,3966,-318,-693,3528,-221,-346,2183,-283,-164,1834,170,-49,1822,-6735,-10539,-1491,35,386,49,254,442,-4,226,303,-37,378,181,-65,0
250,131,242,-615,-519,3385,125,-59,1893,285,-10,1840,257,74,1814,-3913,-5763,-4914,-105,-123,346,238,434,7,219,410,-18,389,389,-56,0
-2148,-2562,226,56,-1191,5306,-125,-325,2818,-417,-210,1956,-50,-100,1749,-8005,-8597,-4988,629,-5385,2068,-797,307,1099,237,-38,63,296,353,-58,0
-4667,-3956,1442,-106,-1462,6304,-94,-515,2759,161,-142,1908,216,-52,1723,-4681,-6672,-5179,-3096,1471,2883,-150,65,480,359,256,40,384,285,-52,0
-2549,-4438,-1699,857,-1266,6061,-23,-424,2944,216,-121,2054,359,100,1868,-3750,-7495,-3712,-687,836,1640,348,291,15,341,312,-100,299,351,-17,0
-4301,690,3351,-2435,2082,1174,-2013,1742,1299,-1732,1484,1389,-564,1116,1606,462,-2334,1870,-325,343,-43,-164,166,3,-203,150,-35,-250,-1,-22,0
2753,9001,-1135,2417,3939,1865,1484,2775,1182,1124,2446,1369,954,1944,1421,3080,7422,-909,299,127,283,-193,42,-39,-222,-194,5,-238,-117,-56,0
4162,4958,2897,-216,2134,4672,613,1410,2492,341,1011,1916,322,544,1733,1171,7117,874,1874,-3,2329,225,-19,451,-327,-15,-5,-273,-264,-18,0
2323,12505,675,3187,2807,4342,133,679,3702,354,482,2346,122,195,1818,273,5302,-885,2834,-1151,3103,-45,428,362,-331,-79,22,-463,-132,-79,0
728,12776,352,-200,561,3969,-59,258,1947,-382,26,1716,-337,46,1738,6010,9015,-4322,548,-304,1273,-394,-257,-30,-327,-481,-11,-525,-181,-68,0
3808,-386,2347,-728,630,5010,133,438,2704,-45,173,1955,-121,-117,1775,452,4613,1097,661,1089,925,-133,-160,189,-413,-151,-72,-381,-287,-38,0
2959,2911,4596,462,911,4526,105,439,2407,153,276,1911,-99,14,1803,9339,11182,-7063,376,1013,481,-340,-114,-6,-350,-359,-43,-506,-207,-43,0
2197,5174,788,130,1740,5628,97,701,2698,4,332,1985,-111,83,1939,-1634,9354,-1027,-89,-35,231,-341,-461,-36,-388,-403,-95,-467,-470,12,0
1876,5955,-2853,79,903,2825,-341,273,1908,-315,189,1824,-318,97,1823,-976,3008,3264,177,-100,206,-283,-255,-42,-323,-298,-40,-297,-507,71,0
11415,4156,2200,3644,-1182,1756,2543,-1062,1383,2464,-1100,1324,1073,-1074,1464,1032,874,1087,232,-283,161,157,-160,-20,114,-29,-3,208,-44,-28,0
-2404,-5526,2452,-1628,-4586,1656,-967,-3646,1237,-976,-3388,1144,-752,-2437,1352,-4785,-8334,-5047,-126,-152,281,184,54,12,240,120,-55,295,19,-50,0
173,-13115,-875,-126,-1617,3042,-23,-873,1816,101,-658,1707,52,-458,1766,-2695,-6749,266,-85,-152,265,258,234,-2,295,331,-18,430,328,17,0
-1218,-8618,-1306,1010,-1475,6232,-438,-1000,3056,-60,-428,2087,81,-92,1865,-2303,-8337,634,-189,-60,393,241,510,15,320,246,-51,392,290,-41,0
83,-15470,-2091,-568,-1458,3222,27,-361,1817,79,-247,1700,108,-104,1739,-8773,-11864,-7035,-302,-113,618,345,185,-20,360,284,-64,441,149,-57,0
3390,7735,8235,33,-1045,5893,-387,-605,2846,-159,-186,2016,-39,30,1895,-1363,-6825,117,-71,21,267,358,360,-36,350,381,-24,434,244,-53,0
1056,-7922,-1188,128,-2222,6441,257,-606,2754,150,-95,1904,144,61,1779,-10951,-11218,-6870,-2049,-1631,2757,-95,-723,405,235,211,85,346,270,-56,0
-1993,-3390,6566,-1377,-1726,3819,-33,-225,1969,116,-74,1816,105,67,1780,-728,-7091,848,110,69,218,384,431,-29,369,308,-61,447,226,-71,0
2566,-12009,447,-19,-616,4164,264,42,1901,201,23,1815,238,154,1837,-4433,-5236,-3177,-298,-488,444,283,347,-17,312,236,-17,388,288,6,0
-9872,-904,-250,-3353,1041,1554,-2744,1040,1310,-2489,921,1352,-1619,687,1614,-1375,333,679,-87,109,164,-252,280,-17,-133,153,8,-296,134,-70,0
3241,7902,2088,-394,4258,3405,673,3924,1516,459,3303,1146,337,2568,1379,4515,8151,-4953,236,564,421,-172,-171,13,-221,-165,-38,-230,-210,-6,0
1570,4013,4603,381,2038,3989,-32,1171,2232,93,998,1803,27,680,1739,1426,7076,979,2309,-1056,2559,-20,286,260,-294,-135,39,-366,-276,-18,0
1188,8903,864,-1684,1291,5356,22,969,2702,-182,398,1928,-141,188,1793,11256,10785,-7662,510,300,1200,-372,-167,-5,-347,-301,-68,-290,-289,-2,0
-3080,12351,-2790,-788,2942,6365,-118,997,3243,-107,506,2082,-173,60,1843,5641,6999,-5620,155,-118,662,-359,-355,-16,-361,-370,-14,-460,-173,-71,0
-2784,10244,1174,-379,353,3695,156,202,1968,-162,-38,1761,-44,-3,1814,703,6155,1328,34,70,412,-367,-454,23,-394,-356,9,-505,-271,-65,0
4589,5327,5694,364,1043,4261,-664,-257,2250,-139,213,1874,-44,108,1772,6308,8536,-7202,507,-109,637,-348,-432,38,-338,-335,-45,-453,-239,-80,0
4299,5943,3240,1016,1470,4783,29,59,2421,64,-28,1940,-65,-191,1860,3919,3251,-4537,159,756,631,-386,-277,-20,-375,-427,-28,-498,-214,-69,0
3055,3836,2598,-240,191,2604,-197,-77,1897,-268,-189,1836,-265,-216,1830,6136,4100,-2204,483,1446,172,-343,-167,-50,-309,-212,-25,-268,-167,-35,0
5651,4879,-750,4227,-947,1099,3060,-574,1183,2819,-610,1216,1543,-403,1668,-94,224,867,65,-156,133,89,-124,43,142,-169,-3,314,83,11,0
2776,-11661,-2366,-58,-4530,1381,280,-3211,1278,165,-2903,1316,70,-1895,1574,-6126,-5405,-3996,-467,-228,409,165,-74,-43,215,110,-19,231,2,-43,0
-1064,-1207,894,-76,-1456,2504,-128,-997,1757,-38,-753,1652,-90,-364,1686,-6072,-6593,-5157,-382,227,630,282,79,-30,293,220,-60,333,60,-57,0
-2054,-3863,1103,0,-296,2439,180,-107,1899,148,-12,1800,110,103,1803,-1858,-2692,-2494,-118,-278,321,290,184,-43,292,322,-53,313,200,-46,0
3671,-9480,687,-23,-802,3697,-85,-188,1794,-27,-60,1746,-21,41,1794,-2057,-6640,986,3,-178,246,302,410,-7,331,258,-61,361,222,-42,0
-359,-64,374,-2,-297,2864,109,-31,1916,42,16,1873,41,128,1875,-9529,-10457,-6681,-336,-1234,700,371,265,-33,338,403,-58,384,213,-62,0
3171,-7234,726,-378,-779,3884,-119,-158,1883,-54,-91,1757,11,64,1826,-1222,-3223,893,-26,-35,414,312,343,-20,343,394,-45,473,240,-63,0
-2187,-3190,3451,832,-352,5383,10,-486,2728,100,-102,1972,223,148,1784,-8795,-8276,-6680,-313,-603,773,394,316,-41,331,425,-53,521,188,-83,0
-1831,-4917,3368,-66,-756,4915,-73,-228,2565,-112,-215,2035,44,93,1766,-2484,-4382,410,-69,-243,516,477,351,-71,363,366,-44,495,203,-65,0
-9811,-2619,2097,-1502,-645,1888,-1149,-444,1729,-1378,-536,1615,-1549,93,1485,-1314,-1325,609,-528,489,-145,-214,197,6,-144,93,15,-188,-3,-46,0
-3002,9723,-1421,-1572,4318,1510,-1307,3222,1134,-1190,2857,1254,-953,2090,1462,823,3549,1948,88,-91,342,-217,-57,-5,-243,-134,-36,-295,-56,-56,0
-2331,5735,-1111,-2189,744,6124,-295,1693,2735,-354,927,1926,-205,574,1755,4242,6382,-5003,443,144,812,-340,-129,-37,-372,-185,-64,-344,-315,-40,0
829,3927,3131,-327,1686,3955,-146,654,2169,32,583,1801,-73,238,1799,4159,5931,-2885,291,82,548,-285,-467,34,-309,-337,-1,-363,-271,-50,0
-918,1100,-1156,-938,956,6372,-171,545,2917,-32,217,1949,-103,-33,1792,688,6159,-1072,77,-376,363,-468,-227,-58,-384,-237,-63,-348,-398,3,0
258,2908,4421,-148,129,1874,-165,-71,1799,-171,-115,1902,-58,238,1874,4098,6268,-2435,-239,-222,21,-301,62,-33,-133,-211,-58,-191,-215,5,0
-3996,5736,243,83,380,3715,-35,-914,1766,-29,-338,1864,80,-410,1703,154,4102,2644,-307,255,122,-301,-347,-16,-322,-205,-27,-372,-168,-51,0
3184,2073,-652,-79,1229,6036,122,184,2691,338,-148,1882,191,-145,1891,6512,6361,-3292,1108,-785,2316,-190,-182,73,-364,-203,-41,-412,-200,-42,0
-1238,3029,-1445,-2558,-725,7294,-166,876,3323,-315,-155,2009,-163,-185,1794,6201,5141,-3467,670,-821,1407,-326,-296,3,-315,-264,-3,-418,-190,-58,0
-3518,6368,505,259,345,2133,222,225,1844,113,120,1843,303,-300,1683,1157,-543,2160,-80,312,5,-250,12,-68,-209,-32,-55,608,477,420,0
6152,1118,2856,3547,335,1309,3237,178,1274,2865,219,1308,1907,71,1541,-1147,-1028,-1678,-48,234,331,185,-189,44,178,-40,43,231,-9,-81,0
-1054,-6696,2320,697,-5270,2167,910,-3362,1406,776,-2924,1327,372,-2509,1544,-4936,-4865,-5226,-552,23,799,177,200,32,268,145,-11,273,266,-20,0
2199,-4546,-261,621,-1412,2549,561,-865,1826,451,-707,1754,317,-375,1776,79,-255,1421,-354,671,880,158,291,60,271,193,-30,364,117,-37,0
3390,-8132,-2705,1168,-1548,5679,497,-383,2248,116,-593,1745,170,-212,1728,-3243,-5694,-219,-50,-277,285,401,316,0,353,212,-36,372,100,-71,0
8751,-11080,-266,3412,396,6892,414,-985,3168,333,-86,1934,114,-8,1743,-5987,-3533,-3387,-108,-497,272,335,384,-44,422,261,-63,453,167,-46,0
167,-1077,-800,-145,-652,3093,-220,46,1942,-116,165,1972,-234,32,2027,-377,-4060,520,20,202,372,324,419,24,379,297,-33,450,116,-59,0
-209,-5213,2046,918,-261,5844,89,-347,2596,19,-263,1935,75,39,1712,-419,-2217,-794,-124,124,806,339,177,-28,407,329,-18,373,188,-12,0
4210,-4963,597,1615,433,6770,193,-976,3363,241,89,2080,11,156,1852,-1190,-5105,-649,-246,2,526,332,465,-18,439,218,-30,402,296,-57,0
2376,-6927,-422,-1541,-1175,1895,-1404,-838,1652,-1164,-846,1652,-867,110,1857,-1987,-1230,792,105,43,122,-440,300,-95,-105,110,-48,-182,-284,170,0
-6108,5779,1024,-20695,12088,-11310,-2720,2610,990,-2501,2395,1045,-1674,1725,1408,4719,6048,-3954,598,227,534,-107,69,-14,-125,-81,-25,-32,-214,28,0
-3883,7930,-679,-2667,1535,5067,-870,1925,2331,-643,1227,1768,-327,857,1797,9403,5804,-4572,818,-154,815,-229,-178,-7,-239,-265,10,-323,-127,-34,0
-9359,7846,-2594,-1324,3880,5001,-746,645,2506,-383,330,1952,-195,170,1862,9138,5101,-4820,1309,-1334,2044,-343,-116,-30,-312,-246,-49,-367,-322,10,0
-1921,4419,4080,-992,1076,4347,-353,326,2548,-282,153,1972,-148,-81,1844,837,5971,436,-47,-181,339,-356,-323,-4,-383,-226,-104,-486,-261,-63,0
-7575,7596,-3377,-465,145,2747,-238,37,1910,-192,-87,1778,-74,-126,1783,1575,5611,-314,-79,-121,265,-415,-301,-17,-397,-281,-12,-454,-72,-41,0
-7143,6778,-303,-603,2043,6185,-363,701,3702,-189,122,2074,-44,-60,1768,8906,8957,-7098,348,518,1082,-475,-230,-59,-426,-368,-40,-493,-164,-93,0
-1898,3295,-1186,1,313,3163,14,128,2035,9,-82,1854,49,-86,1896,605,6600,1288,1028,-609,1722,-122,-123,207,-464,-59,-88,-502,-191,-72,0
-2435,2367,1830,-282,-125,2567,-248,-384,1911,-200,-314,1864,-155,-595,1804,757,1311,1959,765,718,-122,-300,-124,25,-26,93,-74,18,-281,206,0
7777,1828,2699,4754,90,724,4054,82,900,3782,-18,1021,2819,-22,1332,-2164,-960,-784,250,-107,203,-13,-120,59,92,-134,23,248,-150,-41,0
1121,-1788,2030,1057,-1277,1754,724,-2076,1534,864,-1570,1621,503,-1245,1760,-453,-2799,2165,3,927,860,221,242,41,290,74,-30,352,-107,-139,0
-1843,-1267,182,904,391,6088,484,-635,3260,298,-220,2202,79,-287,1691,-896,-1623,1893,14501,30817,1049,-17,131,611,265,238,40,442,234,-5,0
3812,-1833,-4880,1049,-361,4279,154,-328,2610,119,29,1976,52,1,1822,-1184,4,306,8,-1254,2546,-126,524,1055,249,178,162,477,222,-7,0
2406,461,3101,936,657,4584,309,-328,2955,222,184,2114,54,234,1909,-6491,-5334,-4082,-633,-3489,3630,-772,507,1666,263,312,303,427,202,-29,0
871,-3310,2871,545,-390,4634,274,-119,3072,50,-280,2051,6,-19,1733,-358,-2635,1504,-19,463,624,393,265,-13,441,240,-71,532,138,-44,0
5712,-1503,-518,306,-3769,5234,457,1116,3713,152,-606,2427,-104,147,1875,-1609,-1520,259,-955,711,2256,84,106,467,194,370,161,456,242,-28,0
-27,-4355,6172,471,259,4414,265,-1061,2323,196,50,1857,15,110,1851,-900,-1066,419,-1056,1449,2809,36,-122,677,288,458,253,481,162,-63,0
-11503,-8150,-1059,-1873,-2122,2073,-1770,-1574,1464,-1581,-1569,1453,-1314,-663,1523,-358,406,330,-283,510,-126,-62,142,1,-128,171,-49,-71,-355,88,0
-9634,4279,-1819,-3424,2775,1438,-2987,2005,1244,-2588,1892,1246,-1603,1049,1493,6271,4516,-3097,671,87,756,-135,103,-25,-124,-15,-20,-234,-101,-10,0
-1623,3707,3195,-700,775,2011,-469,524,1821,-475,421,1778,-222,276,1790,2629,1754,-3489,344,556,684,-255,8,-42,-202,-181,-18,-270,-79,-25,0
-1631,5430,2422,-149,218,2233,31,-36,1808,0,-97,1826,48,-101,1847,7225,6155,-6285,454,2,1049,-320,-36,-36,-388,-352,-4,-416,-125,-22,0
958,3861,3358,-700,1334,4026,-70,-265,2174,-56,169,1880,31,2,1817,10589,7759,-5299,1017,306,999,-368,-87,-30,-408,-270,-18,-539,-96,-16,0
69,-609,1870,-13,-390,1929,-13,-397,1909,27,-407,1870,130,-344,1893,7447,5780,-4359,1147,-1363,2237,-317,-251,39,-380,-312,-35,-407,-255,-37,0
-767,2835,3072,15,-40,2441,-11,-17,1875,12,-34,1816,97,-122,1831,5050,3952,-4322,322,292,679,-392,-159,-35,-384,-261,-60,-438,-104,-39,0
-1406,3058,2908,-117,55,2622,-119,-126,1895,-40,-189,1775,46,-127,1793,3618,4951,1204,102,65,437,-416,-144,-37,-426,-268,-73,-500,-119,-62,0
-1655,5189,1988,-254,202,2877,-64,-191,1860,-60,-196,1806,41,-224,1826,10254,4300,-5223,1387,-1819,2344,-380,-92,-8,-466,-234,-67,-520,-150,-43,0
-4667,5469,2654,-152,-76,2561,-59,-259,1944,-70,-203,1879,149,-251,1846,2891,2273,-2113,-346,-16,-74,-200,-122,-28,-166,-74,-3,732,577,844,0
-2,-13,1716,-1,-14,1718,-6,33,1743,-7,216,1658,67,-59,1690,24,-8,-44,21,-11,-49,25,-7,-56,26,-20,-42,-164,-77,-48,0
-11178,661,2183,-1040,224,4822,-598,201,2667,-201,-161,1935,-65,-73,1772,2224,4920,690,1968,-1603,2589,115,-192,411,-202,-106,25,-304,-95,-76,0
-4772,-659,-1986,-1631,-613,6081,-444,97,2948,-152,201,2160,127,-129,1939,296,1213,123,1489,-1322,3708,105,-94,593,-324,-169,52,-414,-173,-112,0
-8420,-905,769,-1533,1868,5254,-153,-765,3426,-216,79,2305,140,-222,1862,3907,4128,-4109,1254,1026,3846,292,26,804,-226,-101,121,-398,-222,-69,0
-5083,1956,6192,-1760,909,4683,-478,-203,2380,-165,-106,1797,58,-239,1789,6353,6321,-6001,1841,309,3637,307,-175,713,-302,-102,78,-509,-129,-78,0
-13797,-1406,-1221,-1923,-927,6283,-880,-4,3061,-318,-150,2011,-12,-175,1761,9841,4661,-6692,2240,967,4465,594,206,748,-359,-231,121,-546,-127,-141,0
394,-713,1242,-1063,1522,4790,-424,43,3125,-345,145,2189,13,-140,1824,2774,2258,-4397,186,385,710,-402,-185,-62,-492,-316,-69,-498,-198,-61,0
-11732,864,-749,-935,610,3604,-93,24,1917,75,-257,1823,127,-194,1876,1125,2518,-1756,206,381,591,-427,-106,-39,-418,-296,-37,-505,-109,-73,0
-3518,7041,1624,247,2046,1685,507,1985,1507,502,1802,1518,598,1133,1591,1377,-1144,35,227,-534,-136,78,-120,-16,84,-236,-53,138,-108,-36,0
9835,-70,-2527,4630,-885,2233,3094,-218,1255,2699,-163,1291,1905,-98,1452,-10192,-7053,-5332,-515,-211,510,211,-13,-54,267,40,-61,307,16,-90,0
11135,16,-377,1780,-834,3452,1061,-568,1741,840,-456,1673,428,-199,1707,-2624,-2912,877,-188,-204,278,295,85,-71,329,187,-38,378,116,-54,0
2063,-2567,4146,252,44,2319,34,236,1775,141,170,1744,-35,127,1764,-4522,-4622,2369,-14,167,218,392,259,-29,335,147,-51,413,164,-63,0
